idSensor;source;status;roll;pitch;yaw;rollRate;pitchRate;yawRate;ax;ay;az;gx;gy;gz;mx;my;mz;temp;timestamp;index
1;1;-1;-0.001239774;7.2950854E-5;0.0022191491;0.0041706422;-0.012244037;0.0013809795;0.010345459;2.040863E-4;-9.774773;0.0041706422;-0.012244037;0.0013809795;1.0202551;-0.027012825;1.0262051;0.0;33792578;35
1;1;-1;-0.001239774;7.2950854E-5;0.0022191491;0.0041706422;-0.012244037;0.0013809795;0.010345459;2.040863E-4;-9.774773;0.0041706422;-0.012244037;0.0013809795;1.0202551;-0.027012825;1.0262051;0.0;33792605;36
1;1;-1;-0.001239774;7.2950854E-5;0.0022191491;0.0041706422;-0.012244037;0.0013809795;0.010345459;2.040863E-4;-9.774773;0.0041706422;-0.012244037;0.0013809795;1.0202551;-0.027012825;1.0262051;0.0;33792636;37
1;1;-1;-0.001239774;7.2950854E-5;0.0022191491;0.0041706422;-0.012244037;0.0013809795;0.010345459;2.040863E-4;-9.774773;0.0041706422;-0.012244037;0.0013809795;1.0202551;-0.027012825;1.0262051;0.0;33792664;38
1;1;-1;-0.001239774;7.2950854E-5;0.0022191491;0.0041706422;-0.012244037;0.0013809795;0.010345459;2.040863E-4;-9.774773;0.0041706422;-0.012244037;0.0013809795;1.0202551;-0.027012825;1.0262051;0.0;33792695;39
1;1;-1;-0.001239774;7.2950854E-5;0.0022191491;0.0041706422;-0.012244037;0.0013809795;0.010345459;2.040863E-4;-9.774773;0.0041706422;-0.012244037;0.0013809795;1.0202551;-0.027012825;1.0262051;0.0;33792726;40
1;1;-1;-0.001239774;7.2950854E-5;0.0022191491;0.0041706422;-0.012244037;0.0013809795;0.010345459;2.040863E-4;-9.774773;0.0041706422;-0.012244037;0.0013809795;1.0202551;-0.027012825;1.0262051;0.0;33792757;41
1;1;-1;-0.001239774;7.2950854E-5;0.0022191491;0.0041706422;-0.012244037;0.0013809795;0.010345459;2.040863E-4;-9.774773;0.0041706422;-0.012244037;0.0013809795;1.0202551;-0.027012825;1.0262051;0.0;33792789;42
1;1;-1;-0.001239774;7.2950854E-5;0.0022191491;0.0041706422;-0.012244037;0.0013809795;0.010345459;2.040863E-4;-9.774773;0.0041706422;-0.012244037;0.0013809795;1.0202551;-0.027012825;1.0262051;0.0;33792816;43
1;1;-1;-0.001239774;7.2950854E-5;0.0022191491;0.0041706422;-0.012244037;0.0013809795;0.010345459;2.040863E-4;-9.774773;0.0041706422;-0.012244037;0.0013809795;1.0202551;-0.027012825;1.0262051;0.0;33792847;44
1;1;-1;-0.001239774;7.2950854E-5;0.0022191491;0.0041706422;-0.012244037;0.0013809795;0.010345459;2.040863E-4;-9.774773;0.0041706422;-0.012244037;0.0013809795;1.0202551;-0.027012825;1.0262051;0.0;33792878;45
1;1;-1;-0.001239774;7.2950854E-5;0.0022191491;0.0041706422;-0.012244037;0.0013809795;0.010345459;2.040863E-4;-9.774773;0.0041706422;-0.012244037;0.0013809795;1.0202551;-0.027012825;1.0262051;0.0;33792910;46
1;1;-1;-0.001239774;7.2950854E-5;0.0022191491;0.0041706422;-0.012244037;0.0013809795;0.010345459;2.040863E-4;-9.774773;0.0041706422;-0.012244037;0.0013809795;1.0202551;-0.027012825;1.0262051;0.0;33792937;47
1;1;-1;-0.001239774;7.2950854E-5;0.0022191491;0.0041706422;-0.012244037;0.0013809795;0.010345459;2.040863E-4;-9.774773;0.0041706422;-0.012244037;0.0013809795;1.0202551;-0.027012825;1.0262051;0.0;33792968;48
1;1;-1;-0.001239774;7.2950854E-5;0.0022191491;0.0041706422;-0.012244037;0.0013809795;0.010345459;2.040863E-4;-9.774773;0.0041706422;-0.012244037;0.0013809795;1.0202551;-0.027012825;1.0262051;0.0;33793000;49
1;1;-1;-0.001239774;7.2950854E-5;0.0022191491;0.0041706422;-0.012244037;0.0013809795;0.010345459;2.040863E-4;-9.774773;0.0041706422;-0.012244037;0.0013809795;1.0202551;-0.027012825;1.0262051;0.0;33793031;50
1;1;-1;-0.001239774;7.2950854E-5;0.0022191491;0.0041706422;-0.012244037;0.0013809795;0.010345459;2.040863E-4;-9.774773;0.0041706422;-0.012244037;0.0013809795;1.0202551;-0.027012825;1.0262051;0.0;33793058;51
1;1;-1;-0.001239774;7.2950854E-5;0.0022191491;0.0041706422;-0.012244037;0.0013809795;0.010345459;2.040863E-4;-9.774773;0.0041706422;-0.012244037;0.0013809795;1.0202551;-0.027012825;1.0262051;0.0;33793089;52
1;1;-1;-0.001239774;7.2950854E-5;0.0022191491;0.0041706422;-0.012244037;0.0013809795;0.010345459;2.040863E-4;-9.774773;0.0041706422;-0.012244037;0.0013809795;1.0202551;-0.027012825;1.0262051;0.0;33793121;53
1;1;-1;-0.001239774;7.2950854E-5;0.0022191491;0.0041706422;-0.012244037;0.0013809795;0.010345459;2.040863E-4;-9.774773;0.0041706422;-0.012244037;0.0013809795;1.0202551;-0.027012825;1.0262051;0.0;33793152;54
1;1;-1;-0.001239774;7.2950854E-5;0.0022191491;0.0041706422;-0.012244037;0.0013809795;0.010345459;2.040863E-4;-9.774773;0.0041706422;-0.012244037;0.0013809795;1.0202551;-0.027012825;1.0262051;0.0;33793183;55
1;1;-1;-0.001239774;7.2950854E-5;0.0022191491;0.0041706422;-0.012244037;0.0013809795;0.010345459;2.040863E-4;-9.774773;0.0041706422;-0.012244037;0.0013809795;1.0202551;-0.027012825;1.0262051;0.0;33793210;56
1;1;-1;-0.001239774;7.2950854E-5;0.0022191491;0.0041706422;-0.012244037;0.0013809795;0.010345459;2.040863E-4;-9.774773;0.0041706422;-0.012244037;0.0013809795;1.0202551;-0.027012825;1.0262051;0.0;33793242;57
1;1;-1;-0.001239774;7.2950854E-5;0.0022191491;0.0041706422;-0.012244037;0.0013809795;0.010345459;2.040863E-4;-9.774773;0.0041706422;-0.012244037;0.0013809795;1.0202551;-0.027012825;1.0262051;0.0;33793273;58
1;1;-1;-0.001239774;7.2950854E-5;0.0022191491;0.0041706422;-0.012244037;0.0013809795;0.010345459;2.040863E-4;-9.774773;0.0041706422;-0.012244037;0.0013809795;1.0202551;-0.027012825;1.0262051;0.0;33793304;59
1;1;-1;-0.001239774;7.2950854E-5;0.0022191491;0.0041706422;-0.012244037;0.0013809795;0.010345459;2.040863E-4;-9.774773;0.0041706422;-0.012244037;0.0013809795;1.0202551;-0.027012825;1.0262051;0.0;33793332;60
1;1;-1;-0.001239774;7.2950854E-5;0.0022191491;0.0041706422;-0.012244037;0.0013809795;0.010345459;2.040863E-4;-9.774773;0.0041706422;-0.012244037;0.0013809795;1.0202551;-0.027012825;1.0262051;0.0;33793363;61
1;1;-1;-0.001239774;7.2950854E-5;0.0022191491;0.0041706422;-0.012244037;0.0013809795;0.010345459;2.040863E-4;-9.774773;0.0041706422;-0.012244037;0.0013809795;1.0202551;-0.027012825;1.0262051;0.0;33793394;62
1;1;-1;-0.001239774;7.2950854E-5;0.0022191491;0.0041706422;-0.012244037;0.0013809795;0.010345459;2.040863E-4;-9.774773;0.0041706422;-0.012244037;0.0013809795;1.0202551;-0.027012825;1.0262051;0.0;33793425;63
1;1;-1;-0.001239774;7.2950854E-5;0.0022191491;0.0041706422;-0.012244037;0.0013809795;0.010345459;2.040863E-4;-9.774773;0.0041706422;-0.012244037;0.0013809795;1.0202551;-0.027012825;1.0262051;0.0;33793453;64
1;1;-1;-0.001239774;7.2950854E-5;0.0022191491;0.0041706422;-0.012244037;0.0013809795;0.010345459;2.040863E-4;-9.774773;0.0041706422;-0.012244037;0.0013809795;1.0202551;-0.027012825;1.0262051;0.0;33793484;65
1;1;-1;-0.001239774;7.2950854E-5;0.0022191491;0.0041706422;-0.012244037;0.0013809795;0.010345459;2.040863E-4;-9.774773;0.0041706422;-0.012244037;0.0013809795;1.0202551;-0.027012825;1.0262051;0.0;33793515;66
1;1;-1;-0.001239774;7.2950854E-5;0.0022191491;0.0041706422;-0.012244037;0.0013809795;0.010345459;2.040863E-4;-9.774773;0.0041706422;-0.012244037;0.0013809795;1.0202551;-0.027012825;1.0262051;0.0;33793546;67
1;1;-1;-0.001239774;7.2950854E-5;0.0022191491;0.0041706422;-0.012244037;0.0013809795;0.010345459;2.040863E-4;-9.774773;0.0041706422;-0.012244037;0.0013809795;1.0202551;-0.027012825;1.0262051;0.0;33793578;68
1;1;-1;-0.001239774;7.2950854E-5;0.0022191491;0.0041706422;-0.012244037;0.0013809795;0.010345459;2.040863E-4;-9.774773;0.0041706422;-0.012244037;0.0013809795;1.0202551;-0.027012825;1.0262051;0.0;33793605;69
1;1;-1;-0.001239774;7.2950854E-5;0.0022191491;0.0041706422;-0.012244037;0.0013809795;0.010345459;2.040863E-4;-9.774773;0.0041706422;-0.012244037;0.0013809795;1.0202551;-0.027012825;1.0262051;0.0;33793636;70
1;1;-1;-0.001239774;7.2950854E-5;0.0022191491;0.0041706422;-0.012244037;0.0013809795;0.010345459;2.040863E-4;-9.774773;0.0041706422;-0.012244037;0.0013809795;1.0202551;-0.027012825;1.0262051;0.0;33793667;71
1;1;-1;-0.001239774;7.2950854E-5;0.0022191491;0.0041706422;-0.012244037;0.0013809795;0.010345459;2.040863E-4;-9.774773;0.0041706422;-0.012244037;0.0013809795;1.0202551;-0.027012825;1.0262051;0.0;33793699;72
1;1;-1;-0.001239774;7.2950854E-5;0.0022191491;0.0041706422;-0.012244037;0.0013809795;0.010345459;2.040863E-4;-9.774773;0.0041706422;-0.012244037;0.0013809795;1.0202551;-0.027012825;1.0262051;0.0;33793726;73
1;1;-1;-0.001239774;7.2950854E-5;0.0022191491;0.0041706422;-0.012244037;0.0013809795;0.010345459;2.040863E-4;-9.774773;0.0041706422;-0.012244037;0.0013809795;1.0202551;-0.027012825;1.0262051;0.0;33793757;74
1;1;-1;-0.001239774;7.2950854E-5;0.0022191491;0.0041706422;-0.012244037;0.0013809795;0.010345459;2.040863E-4;-9.774773;0.0041706422;-0.012244037;0.0013809795;1.0202551;-0.027012825;1.0262051;0.0;33793789;75
1;1;-1;-0.001239774;7.2950854E-5;0.0022191491;0.0041706422;-0.012244037;0.0013809795;0.010345459;2.040863E-4;-9.774773;0.0041706422;-0.012244037;0.0013809795;1.0202551;-0.027012825;1.0262051;0.0;33793820;76
1;1;-1;-0.001239774;7.2950854E-5;0.0022191491;0.0041706422;-0.012244037;0.0013809795;0.010345459;2.040863E-4;-9.774773;0.0041706422;-0.012244037;0.0013809795;1.0202551;-0.027012825;1.0262051;0.0;33793847;77
1;1;-1;-0.001239774;7.2950854E-5;0.0022191491;0.0041706422;-0.012244037;0.0013809795;0.010345459;2.040863E-4;-9.774773;0.0041706422;-0.012244037;0.0013809795;1.0202551;-0.027012825;1.0262051;0.0;33793878;78
1;1;-1;-0.001239774;7.2950854E-5;0.0022191491;0.0041706422;-0.012244037;0.0013809795;0.010345459;2.040863E-4;-9.774773;0.0041706422;-0.012244037;0.0013809795;1.0202551;-0.027012825;1.0262051;0.0;33793910;79
1;1;-1;-0.001239774;7.2950854E-5;0.0022191491;0.0041706422;-0.012244037;0.0013809795;0.010345459;2.040863E-4;-9.774773;0.0041706422;-0.012244037;0.0013809795;1.0202551;-0.027012825;1.0262051;0.0;33793941;80
1;1;-1;-0.001239774;7.2950854E-5;0.0022191491;0.0041706422;-0.012244037;0.0013809795;0.010345459;2.040863E-4;-9.774773;0.0041706422;-0.012244037;0.0013809795;1.0202551;-0.027012825;1.0262051;0.0;33793968;81
1;1;-1;-0.001239774;7.2950854E-5;0.0022191491;0.0041706422;-0.012244037;0.0013809795;0.010345459;2.040863E-4;-9.774773;0.0041706422;-0.012244037;0.0013809795;1.0202551;-0.027012825;1.0262051;0.0;33794000;82
1;1;-1;-0.001239774;7.2950854E-5;0.0022191491;0.0041706422;-0.012244037;0.0013809795;0.010345459;2.040863E-4;-9.774773;0.0041706422;-0.012244037;0.0013809795;1.0202551;-0.027012825;1.0262051;0.0;33794031;83
1;1;-1;-0.001239774;7.2950854E-5;0.0022191491;0.0041706422;-0.012244037;0.0013809795;0.010345459;2.040863E-4;-9.774773;0.0041706422;-0.012244037;0.0013809795;1.0202551;-0.027012825;1.0262051;0.0;33794062;84
1;1;-1;-0.001239774;7.2950854E-5;0.0022191491;0.0041706422;-0.012244037;0.0013809795;0.010345459;2.040863E-4;-9.774773;0.0041706422;-0.012244037;0.0013809795;1.0202551;-0.027012825;1.0262051;0.0;33794093;85
1;1;-1;-0.001239774;7.2950854E-5;0.0022191491;0.0041706422;-0.012244037;0.0013809795;0.010345459;2.040863E-4;-9.774773;0.0041706422;-0.012244037;0.0013809795;1.0202551;-0.027012825;1.0262051;0.0;33794121;86
1;1;-1;-0.001239774;7.2950854E-5;0.0022191491;0.0041706422;-0.012244037;0.0013809795;0.010345459;2.040863E-4;-9.774773;0.0041706422;-0.012244037;0.0013809795;1.0202551;-0.027012825;1.0262051;0.0;33794152;87
1;1;-1;-0.001239774;7.2950854E-5;0.0022191491;0.0041706422;-0.012244037;0.0013809795;0.010345459;2.040863E-4;-9.774773;0.0041706422;-0.012244037;0.0013809795;1.0202551;-0.027012825;1.0262051;0.0;33794183;88
1;1;-1;-0.001239774;7.2950854E-5;0.0022191491;0.0041706422;-0.012244037;0.0013809795;0.010345459;2.040863E-4;-9.774773;0.0041706422;-0.012244037;0.0013809795;1.0202551;-0.027012825;1.0262051;0.0;33794214;89
1;1;-1;-0.001239774;7.2950854E-5;0.0022191491;0.0041706422;-0.012244037;0.0013809795;0.010345459;2.040863E-4;-9.774773;0.0041706422;-0.012244037;0.0013809795;1.0202551;-0.027012825;1.0262051;0.0;33794242;90
1;1;-1;-0.001239774;7.2950854E-5;0.0022191491;0.0041706422;-0.012244037;0.0013809795;0.010345459;2.040863E-4;-9.774773;0.0041706422;-0.012244037;0.0013809795;1.0202551;-0.027012825;1.0262051;0.0;33794273;91
1;1;-1;-0.001239774;7.2950854E-5;0.0022191491;0.0041706422;-0.012244037;0.0013809795;0.010345459;2.040863E-4;-9.774773;0.0041706422;-0.012244037;0.0013809795;1.0202551;-0.027012825;1.0262051;0.0;33794304;92
1;1;1;2.436989E-4;9.301982E-4;0.007893294;0.0012836073;-0.011161903;-0.0017720108;-0.0076732635;0.007680893;-9.798094;0.0012836073;-0.011161903;-0.0017720108;1.0188942;-0.027143478;1.0232601;0.0;33794335;93
1;1;1;2.1901846E-4;7.963393E-4;0.007837129;-0.0024633082;-0.013387203;-0.005613388;-0.0024700165;-0.0045957565;-9.802851;-0.0024633082;-0.013387203;-0.005613388;1.0166101;-0.030138016;1.0210333;0.0;33794335;94
1;1;1;2.1730551E-4;7.386544E-4;0.007806416;-1.68872E-4;-0.00576908;-0.0030701328;0.0031986237;0.0026865005;-9.777689;-1.68872E-4;-0.00576908;-0.0030701328;1.0237942;-0.025482178;1.0244646;0.0;33794335;95
1;1;1;2.0514606E-4;5.545754E-4;0.0077332607;-0.0012113665;-0.018409148;-0.0073123574;0.014893532;0.0026340485;-9.769494;-0.0012113665;-0.018409148;-0.0073123574;1.0192595;-0.029123306;1.0191317;0.0;33794343;96
1;1;1;2.70994E-4;3.7943604E-4;0.00768744;0.006587038;-0.017514953;-0.0045783045;0.010838509;-0.0071430206;-9.782246;0.006587038;-0.017514953;-0.0045783045;1.0184622;-0.028928757;1.0161238;0.0;33794351;97
1;1;1;3.5265033E-4;2.3241848E-4;0.0076451143;0.008166929;-0.01470309;-0.0042280806;0.010673523;-0.0071487427;-9.77979;0.008166929;-0.01470309;-0.0042280806;1.0201988;-0.029795647;1.0180264;0.0;33794367;98
1;1;1;2.8833395E-4;1.6703508E-4;0.0076293536;-0.0064313086;-0.006538907;-0.0015738553;-0.0036211014;-0.004640579;-9.785658;-0.0064313086;-0.006538907;-0.0015738553;1.018713;-0.028861046;1.0232182;0.0;33794375;99
1;1;1;4.1870703E-4;3.3682618E-6;0.007614328;0.013037135;-0.016367465;-0.0014966859;0.001253128;-0.0046539307;-9.785327;0.013037135;-0.016367465;-0.0014966859;1.0202341;-0.02543068;1.0245037;0.0;33794382;100
1;1;1;4.5158266E-4;-9.819228E-5;0.007590991;0.0032874586;-0.010157073;-0.002329164;0.0027065277;0.010032654;-9.770215;0.0032874586;-0.010157073;-0.002329164;1.0191412;-0.027627945;1.0177813;0.0;33794394;101
1;1;1;5.3467683E-4;-1.9023468E-4;0.0075281276;0.008308557;-0.009207445;-0.0062816213;0.0048151016;0.007557869;-9.765174;0.008308557;-0.009207445;-0.0062816213;1.0216265;-0.028707504;1.0208588;0.0;33794402;102
1;1;1;5.182684E-4;-2.9986224E-4;0.0075184978;-0.0016412669;-0.010963125;-9.570727E-4;0.009552956;2.746582E-4;-9.799498;-0.0016412669;-0.010963125;-9.570727E-4;1.0178165;-0.026528358;1.0184183;0.0;33794414;103
1;1;1;5.354742E-4;-3.6287608E-4;0.0074986606;0.0017198093;-0.006302437;-0.0019803762;0.02042389;1.9073486E-4;-9.779023;0.0017198093;-0.006302437;-0.0019803762;1.0166178;-0.02587223;1.017683;0.0;33794425;104
1;1;1;6.610813E-4;-4.5502814E-4;0.007503718;0.012561014;-0.00921479;5.11194E-4;0.010344505;-0.0096178055;-9.774914;0.012561014;-0.00921479;5.11194E-4;1.0169897;-0.029332161;1.016264;0.0;33794433;105
1;1;1;6.669526E-4;-1.3315567E-4;0.0074621015;0.004997079;-0.006063992;-0.0041587437;0.009224892;-0.0046482086;-9.794656;0.004997079;-0.006063992;-0.0041587437;1.0171804;-0.032146454;1.0143938;0.0;33794445;106
1;1;1;6.57568E-4;-2.4947748E-4;0.0074628955;-9.3858625E-4;-0.011632068;8.705989E-5;0.009388924;-0.0021858215;-9.797077;-9.3858625E-4;-0.011632068;8.705989E-5;1.0176134;-0.025429726;1.0207119;0.0;33794453;107
1;1;1;7.224553E-4;-3.9717366E-4;0.007481521;0.0064892643;-0.014768393;0.0018728138;-0.003458023;-0.009545326;-9.788185;0.0064892643;-0.014768393;0.0018728138;1.0207672;-0.028743744;1.016017;0.0;33794464;108
1;1;1;8.0189575E-4;-4.7123374E-4;0.0074836854;0.007944187;-0.007405722;2.2212014E-4;4.3010712E-4;-0.007142067;-9.773083;0.007944187;-0.007405722;2.2212014E-4;1.021246;-0.025000572;1.0044613;0.0;33794476;109
1;1;1;9.185162E-4;-5.5286544E-4;0.0074409414;0.011659876;-0.008166942;-0.0042673964;0.003361702;2.374649E-4;-9.78018;0.011659876;-0.008166942;-0.0042673964;1.0216455;-0.023932457;1.0045033;0.0;33794484;110
1;1;1;8.5155835E-4;-6.7286304E-4;0.0074217403;-0.0066970354;-0.012001425;-0.0019094212;0.0035276413;0.0076093674;-9.782531;-0.0066970354;-0.012001425;-0.0019094212;1.0215521;-0.02392006;1.00564;0.0;33794496;111
1;1;1;7.848927E-4;-7.36241E-4;0.007436349;-0.006665459;-0.0063368008;0.0014660165;-0.0016765594;2.4414062E-4;-9.778054;-0.006665459;-0.0063368008;0.0014660165;1.0224638;-0.02694416;1.0051746;0.0;33794503;112
1;1;1;8.3842664E-4;-8.1958907E-4;0.007404731;0.0053509152;-0.0083374595;-0.0031550752;0.003030777;-0.012052536;-9.775445;0.0053509152;-0.0083374595;-0.0031550752;1.0171852;-0.03026867;1.0089464;0.0;33794515;113
1;1;1;8.557881E-4;-9.0902654E-4;0.007438627;0.0017390188;-0.008940942;0.0033972657;0.02724266;-0.012125969;-9.771337;0.0017390188;-0.008940942;0.0033972657;1.0138235;-0.030599594;1.0142479;0.0;33794523;114
1;1;1;8.7160635E-4;-9.449767E-4;0.007399467;0.0015782047;-0.0035983897;-0.0039129546;0.015548706;-0.0096178055;-9.779495;0.0015782047;-0.0035983897;-0.0039129546;1.0191097;-0.025217056;1.0228529;0.0;33794535;115
1;1;1;8.1163266E-4;-7.842068E-4;0.0074567767;-0.0018187546;-0.008701341;0.005736181;0.004348755;-0.004634857;-9.794987;-0.0018187546;-0.008701341;0.005736181;1.0166388;-0.027141571;1.020174;0.0;33794546;116
1;1;1;8.542399E-4;-8.731802E-4;0.007338082;0.0042509665;-0.008907007;-0.011862091;-0.003619194;0.010090828;-9.785447;0.0042509665;-0.008907007;-0.011862091;1.0177279;-0.029305458;1.0199652;0.0;33794554;117
1;1;1;8.2743616E-4;-9.835891E-4;0.007397597;-0.0026747591;-0.011035814;0.005960924;-0.010766983;0.010116577;-9.788399;-0.0026747591;-0.011035814;0.005960924;1.015377;-0.031917572;1.0133934;0.0;33794562;118
1;1;1;8.8850776E-4;-0.0011254767;0.007393711;0.0061068484;-0.0141890505;-3.7619885E-4;0.0056381226;0.012500763;-9.777384;0.0061068484;-0.0141890505;-3.7619885E-4;1.0172062;-0.029472351;1.0238142;0.0;33794574;119
1;1;1;8.6996256E-4;-0.0012924651;0.007419214;-0.0018514557;-0.016696574;0.0025651047;-0.0034561157;0.002732277;-9.788009;-0.0018514557;-0.016696574;0.0025651047;1.0170984;-0.030179024;1.0176258;0.0;33794582;120
1;1;1;8.726928E-4;-0.0014847455;0.007390668;2.6916803E-4;-0.019230591;-0.0028378721;-0.005730629;-0.0070762634;-9.790771;2.6916803E-4;-0.019230591;-0.0028378721;1.0183382;-0.027789116;1.0225325;0.0;33794593;121
1;1;1;8.267925E-4;-0.0015521426;0.007354074;-0.004595742;-0.006742764;-0.0036537398;0.008236885;-0.007142067;-9.779955;-0.004595742;-0.006742764;-0.0036537398;1.0162563;-0.031264305;1.0152788;0.0;33794605;122
1;1;1;8.012016E-4;-0.0016698836;0.007405192;-0.002550799;-0.011770032;0.0051211384;-0.0013484955;-0.007109642;-9.7830715;-0.002550799;-0.011770032;0.0051211384;1.0198288;-0.028874397;1.0235071;0.0;33794613;123
1;1;1;8.544694E-4;-0.0018155859;0.0074365167;0.0053321393;-0.01456772;0.0031440652;0.0061273575;-0.014489174;-9.785137;0.0053321393;-0.01456772;0.0031440652;1.019659;-0.029115677;1.020525;0.0;33794625;124
1;1;1;9.12623E-4;-0.0019664157;0.007458315;0.0058191405;-0.015081092;0.0021934083;-0.0013475418;2.565384E-4;-9.782966;0.0058191405;-0.015081092;0.0021934083;1.0227022;-0.025662422;1.0262318;0.0;33794632;125
1;1;1;6.383071E-4;-0.0018061592;0.007434347;-0.0023997487;-0.007826472;-0.0024345822;-0.013205528;0.005212784;-9.788634;-0.0023997487;-0.007826472;-0.0024345822;1.0147142;-0.03604889;1.0080214;0.0;33794644;126
1;1;1;6.9959724E-4;-0.0019628317;0.0074211447;0.006126291;-0.015668256;-0.0013095188;0.005800247;2.3078918E-4;-9.780015;0.006126291;-0.015668256;-0.0013095188;1.0210047;-0.023705482;1.0261812;0.0;33794656;127
1;1;1;6.9088576E-4;-0.0020445255;0.007334086;-8.8867417E-4;-0.008175321;-0.008700107;0.010345459;-0.0022506714;-9.774808;-8.8867417E-4;-0.008175321;-0.008700107;1.0178709;-0.02738285;1.0190926;0.0;33794664;128
1;1;1;5.58262E-4;-0.0022116983;0.0073275347;-0.013263502;-0.016717974;-6.4494606E-4;5.950928E-4;2.3078918E-4;-9.775434;-0.013263502;-0.016717974;-6.4494606E-4;1.01756;-0.032705307;1.0237713;0.0;33794675;129
1;1;1;6.359513E-4;-0.0023760393;0.007269357;0.0077557457;-0.016437449;-0.00580788;0.005964279;-0.009585381;-9.782612;0.0077557457;-0.016437449;-0.00580788;1.016552;-0.035805702;1.0136127;0.0;33794683;130
1;1;1;7.1896805E-4;-0.0025611476;0.0072699077;0.008301645;-0.018510822;6.756786E-5;0.007907867;-0.0071554184;-9.7750435;0.008301645;-0.018510822;6.756786E-5;1.0187387;-0.028018951;1.0214081;0.0;33794695;131
1;1;1;7.085766E-4;-0.0026082862;0.0072558154;-0.0010427538;-0.0047149216;-0.0014057851;0.005472183;0.002673149;-9.775068;-0.0010427538;-0.0047149216;-0.0014057851;1.0191317;-0.028856277;1.0243807;0.0;33794703;132
1;1;1;7.3155225E-4;-0.0026889008;0.007273761;0.0023024352;-0.008060075;0.0018005313;0.011167526;-0.0022182465;-9.787087;0.0023024352;-0.008060075;0.0018005313;1.019619;-0.027340889;1.0258074;0.0;33794714;133
1;1;1;6.446839E-4;-0.002767958;0.0072121476;-0.008703719;-0.007909874;-0.006156015;0.008896828;0.0051603317;-9.789602;-0.008703719;-0.007909874;-0.006156015;1.0205936;-0.025442123;1.0238438;0.0;33794726;134
1;1;1;6.833115E-4;-0.0028798524;0.007177766;0.0038530082;-0.011191768;-0.0034303586;-0.0011806488;0.017451286;-9.785175;0.0038530082;-0.011191768;-0.0034303586;1.0200853;-0.02542305;1.0249586;0.0;33794734;135
1;1;1;5.764496E-4;-0.0026226381;0.0070952917;0.0019843772;-0.013195327;-0.008280119;-0.0029621124;0.0076618195;-9.795307;0.0019843772;-0.013195327;-0.008280119;1.0188217;-0.027384758;1.0202827;0.0;33794746;136
1;1;1;6.379446E-4;-0.0027756202;0.0070716287;0.006143122;-0.015299641;-0.0023567495;0.0036907196;-0.0046606064;-9.785162;0.006143122;-0.015299641;-0.0023567495;1.0164576;-0.030615807;1.0164433;0.0;33794753;137
1;1;1;6.980129E-4;-0.0028607773;0.006970643;0.005978481;-0.008522392;-0.010092971;0.005801201;0.0026865005;-9.77998;0.005978481;-0.008522392;-0.010092971;1.0150404;-0.03234291;1.0135994;0.0;33794761;138
1;1;1;6.924252E-4;-0.0030538563;0.0068904003;-5.8252196E-4;-0.01931347;-0.00801076;0.0014181137;0.005173683;-9.7876425;-5.8252196E-4;-0.01931347;-0.00801076;1.0185261;-0.032114983;1.0194921;0.0;33794777;139
1;1;1;6.7345344E-4;-0.0030668844;0.0068708835;-0.0019031254;-0.0013041296;-0.0019507641;0.006459236;0.007622719;-9.789734;-0.0019031254;-0.0013041296;-0.0019507641;1.0171347;-0.03489971;1.0191412;0.0;33794785;140
1;1;1;7.0538255E-4;-0.003165847;0.0069181295;0.0032076517;-0.009892991;0.004731481;-0.003127098;0.0051994324;-9.792886;0.0032076517;-0.009892991;0.004731481;1.0192909;-0.031046867;1.0202379;0.0;33794792;141
1;1;1;7.285537E-4;-0.0032944423;0.006898482;0.0023109044;-0.01286078;-0.0019557595;-0.006222725;2.6988983E-4;-9.783297;0.0023109044;-0.01286078;-0.0019557595;1.0178814;-0.033207893;1.0173855;0.0;33794804;142
1;1;1;7.922128E-4;-0.003405702;0.0069074063;0.0063689626;-0.011125272;9.006882E-4;-0.0013465881;0.0027122498;-9.78293;0.0063689626;-0.011125272;9.006882E-4;1.0174618;-0.030405998;1.0169554;0.0;33794812;143
1;1;1;8.260804E-4;-0.0034991042;0.0068243197;0.003357981;-0.009346711;-0.008301278;0.0040197372;-0.0021915436;-9.790039;0.003357981;-0.009346711;-0.008301278;1.0180588;-0.028694153;1.0170183;0.0;33794824;144
1;1;1;9.128219E-4;-0.003622086;0.006814254;0.008670676;-0.012298998;-9.953897E-4;0.0033607483;-0.0071287155;-9.780286;0.008670676;-0.012298998;-9.953897E-4;1.0193167;-0.027589798;1.0219088;0.0;33794835;145
1;1;1;7.543692E-4;-0.0033040305;0.0067809853;-0.0035605873;-0.011715483;-0.0033593625;0.007909775;0.0075769424;-9.774833;-0.0035605873;-0.011715483;-0.0033593625;1.0183382;-0.029785156;1.016326;0.0;33794847;146
1;1;1;7.446263E-4;-0.0033970908;0.007239603;-0.0010067743;-0.009314089;-0.00491505;0.008073807;-0.0046930313;-9.777464;-0.0010067743;-0.009314089;-0.00491505;1.01927;-0.028491974;1.0175486;0.0;33794855;147
1;1;1;7.335045E-4;-0.0034838733;0.007287962;-0.0010956838;-0.008674699;0.0048420466;0.008566856;2.3651123E-4;-9.78476;-0.0010956838;-0.008674699;0.0048420466;1.0175056;-0.032128334;1.0167007;0.0;33794867;148
1;1;1;7.844152E-4;-0.0034926925;0.0072429543;0.0050753346;-8.855019E-4;-0.00450013;0.012619019;-0.0022640228;-9.772186;0.0050753346;-8.855019E-4;-0.00450013;1.016202;-0.032562256;1.0147972;0.0;33794875;149
1;1;1;7.994429E-4;-0.0035312555;0.007148035;0.0014694998;-0.0038638276;-0.009488805;0.01294899;0.0026597977;-9.777028;0.0014694998;-0.0038638276;-0.009488805;1.0179806;-0.032601357;1.0135164;0.0;33794882;150
1;1;1;6.91559E-4;-0.0036306349;0.007159256;-0.0107843205;-0.009937086;0.0011299222;0.003361702;2.374649E-4;-9.78018;-0.0107843205;-0.009937086;0.0011299222;1.0159035;-0.03407669;1.0136118;0.0;33794894;151
1;1;1;6.7510793E-4;-0.0036901003;0.007152859;-0.001647422;-0.0059469496;-6.354473E-4;0.0077438354;-0.007162094;-9.772587;-0.001647422;-0.0059469496;-6.354473E-4;1.0179644;-0.03128147;1.0160532;0.0;33794906;152
1;1;1;6.692212E-4;-0.00376109;0.007236482;-5.5756303E-4;-0.007093266;0.008366952;0.0077438354;-0.007162094;-9.772587;-5.5756303E-4;-0.007093266;0.008366952;1.0177765;-0.029922485;1.0181217;0.0;33794914;153
1;1;1;7.0456386E-4;-0.0037589695;0.0072367126;0.003534326;2.1216093E-4;2.302039E-5;0.008401871;-0.007136345;-9.782411;0.003534326;2.1216093E-4;2.302039E-5;1.0175219;-0.026666641;1.0206833;0.0;33794925;154
1;1;1;6.0046156E-4;-0.0038637365;0.0072421357;-0.010408125;-0.010476445;5.491389E-4;9.2315674E-4;-0.009577751;-9.780486;-0.010408125;-0.010476445;5.491389E-4;1.0185537;-0.027802467;1.0159197;0.0;33794933;155
1;1;1;5.9909484E-4;-0.0035024723;0.007141125;0.005597351;-0.012775179;-0.01012873;0.0033607483;-0.0071287155;-9.780286;0.005597351;-0.012775179;-0.01012873;1.0193052;-0.023008347;1.0238228;0.0;33794945;156
1;1;1;5.7485263E-4;-0.003609911;0.007538742;-0.0024328625;-0.010750947;0.0037662366;-0.013206482;3.0231476E-4;-9.788705;-0.0024328625;-0.010750947;0.0037662366;1.0181684;-0.028420448;1.0181704;0.0;33794953;157
1;1;1;5.8869954E-4;-0.003714179;0.007573825;0.00139737;-0.01042467;0.003514561;-0.004114151;-0.0022039413;-9.778255;0.00139737;-0.01042467;0.003514561;1.0209618;-0.028632164;1.0224295;0.0;33794964;158
1;1;1;6.846356E-4;-0.003777252;0.007558878;0.0095880525;-0.0063082622;-0.0014908357;0.00319767;2.3078918E-4;-9.777724;0.0095880525;-0.0063082622;-0.0014908357;1.0173912;-0.02820301;1.017456;0.0;33794976;159
1;1;1;6.916658E-4;-0.003893671;0.0075343093;6.935432E-4;-0.011643616;-0.0024489549;0.01864624;0.005133629;-9.788941;6.935432E-4;-0.011643616;-0.0024489549;1.0188704;-0.025355339;1.0244341;0.0;33794984;160
1;1;1;7.054436E-4;-0.0040510595;0.007536931;0.001378611;-0.01573875;2.726789E-4;0.013277054;-0.0022382736;-9.78201;0.001378611;-0.01573875;2.726789E-4;1.0168419;-0.030993462;1.0169115;0.0;33794996;161
1;1;1;8.0514606E-4;-0.0041735442;0.00746944;0.009942564;-0.012253777;-0.0067391624;0.01245594;0.0026407242;-9.769659;0.009942564;-0.012253777;-0.0067391624;1.0196209;-0.029324532;1.0159464;0.0;33795003;162
1;1;1;7.7440724E-4;-0.0042497544;0.007480101;-0.0030692273;-0.00762018;0.0010721202;0.0059661865;0.0051469803;-9.7824;-0.0030692273;-0.00762018;0.0010721202;1.0175161;-0.02802658;1.0133476;0.0;33795015;163
1;1;1;8.584078E-4;-0.004361635;0.007466331;0.008393899;-0.011189364;-0.001367923;0.0012540817;0.007622719;-9.7851515;0.008393899;-0.011189364;-0.001367923;1.0181665;-0.027129173;1.017971;0.0;33795027;164
1;1;1;9.804836E-4;-0.004459816;0.0074256896;0.01218973;-0.009821939;-0.0040550106;0.0010890961;2.4986267E-4;-9.782801;0.01218973;-0.009821939;-0.0040550106;1.017952;-0.026460648;1.0204859;0.0;33795035;165
1;1;1;0.0010599132;-0.0041581774;0.007368395;0.014443356;-0.004366083;-0.0057454007;-0.0037851334;-0.0021915436;-9.783167;0.014443356;-0.004366083;-0.0057454007;1.0184908;-0.030988693;1.019743;0.0;33795046;166
1;1;1;0.0011170966;-0.0042588133;0.007441692;0.005702809;-0.0100666955;-0.0022387095;0.008071899;-0.012059212;-9.77757;0.005702809;-0.0100666955;-0.0022387095;1.0146933;-0.036802292;1.0134964;0.0;33795054;167
1;1;1;0.0010322997;-0.004385816;0.007458901;-0.0084720915;-0.012698454;0.0017346641;0.008072853;-0.009604454;-9.7775345;-0.0084720915;-0.012698454;0.0017346641;1.0202932;-0.026306152;1.0174112;0.0;33795066;168
1;1;1;0.0011301892;-0.004512405;0.0075112064;0.009811993;-0.012653555;0.0052440395;-0.0016775131;-0.00712204;-9.77816;0.009811993;-0.012653555;0.0052440395;1.0175333;-0.028842926;1.0183601;0.0;33795074;169
1;1;1;0.0011591987;-0.0046594283;0.00743879;0.0028679762;-0.014710498;-0.0072246417;0.014891624;-0.009643555;-9.7696705;0.0028679762;-0.014710498;-0.0072246417;1.01861;-0.031437874;1.0183678;0.0;33795085;170
1;1;1;0.0011583746;-0.0047210474;0.0073900064;-1.0532208E-4;-0.006167464;-0.0048712576;0.0066223145;-0.0046482086;-9.792366;-1.0532208E-4;-0.006167464;-0.0048712576;1.0155258;-0.02976036;1.0097876;0.0;33795093;171
1;1;1;0.0011170903;-0.0047984403;0.0073734983;-0.0041362518;-0.0077411314;-0.0016417289;-0.0015125275;-0.0046596527;-9.7805805;-0.0041362518;-0.0077411314;-0.0016417289;1.0186701;-0.0280056;1.0170641;0.0;33795105;172
1;1;1;0.0011945579;-0.004919125;0.00743824;0.007778217;-0.0120608965;0.0064882403;0.014234543;-0.0023021698;-9.759741;0.007778217;-0.0120608965;0.0064882403;1.0164938;-0.029279709;1.0157843;0.0;33795117;173
1;1;1;0.001126488;-0.004935871;0.007488831;-0.0067820335;-0.0016686317;0.00506096;0.010674477;-0.00223732;-9.779719;-0.0067820335;-0.0016686317;0.00506096;1.0175877;-0.027320862;1.0199957;0.0;33795125;174
1;1;1;0.0011680813;-0.0049602166;0.007424118;0.0041272677;-0.002442042;-0.00646844;-0.0011835098;-0.004647255;-9.785492;0.0041272677;-0.002442042;-0.00646844;1.0176535;-0.02563858;1.0163689;0.0;33795132;175
1;1;1;0.00117252;-0.0045168083;0.0073939473;0.0024281677;-0.0016558621;-0.0030212763;0.010017395;-0.0047187805;-9.76993;0.0024281677;-0.0016558621;-0.0030212763;1.0240679;-0.02196598;1.0268288;0.0;33795144;176
1;1;1;0.0012469089;-0.004636123;0.007943946;0.0073998347;-0.011932689;0.0016967567;-0.0010194778;2.6988983E-4;-9.787878;0.0073998347;-0.011932689;0.0016967567;1.0236292;-0.024346352;1.0249319;0.0;33795156;177
1;1;1;0.0013030194;-0.004854242;0.007891842;0.0055860034;-0.021818528;-0.0051825442;-0.0037851334;-0.0021915436;-9.783167;0.0055860034;-0.021818528;-0.0051825442;1.018404;-0.029072762;1.0179462;0.0;33795164;178
1;1;1;0.0012756068;-0.0049729166;0.007926541;-0.0027241504;-0.011863012;0.0034849683;0.0033607483;-0.0071287155;-9.780286;-0.0027241504;-0.011863012;0.0034849683;1.017272;-0.03102684;1.0141954;0.0;33795175;179
1;1;1;0.0013714415;-0.0050633624;0.007878562;0.0095594665;-0.009050839;-0.0047856392;-0.0031290054;-0.007077217;-9.793062;0.0095594665;-0.009050839;-0.0047856392;1.016552;-0.034439087;1.0159206;0.0;33795183;180
1;1;1;0.0014306654;-0.005172748;0.007916143;0.005941861;-0.010933171;0.0037734022;0.008565903;-0.007129669;-9.784866;0.005941861;-0.010933171;0.0037734022;1.0169153;-0.027731895;1.0206318;0.0;33795195;181
1;1;1;0.0014614373;-0.005313347;0.007918244;0.003078205;-0.014059607;2.303235E-4;0.0030326843;-0.0046863556;-9.775339;0.003078205;-0.014059607;2.303235E-4;1.017026;-0.029489517;1.0169497;0.0;33795203;182
1;1;1;0.0014149135;-0.005455241;0.007988201;-0.0046147415;-0.014179123;0.0070163286;-0.006386757;0.0027198792;-9.780806;-0.0046147415;-0.014179123;0.0070163286;1.0194407;-0.027770042;1.0204344;0.0;33795214;183
1;1;1;0.0014741439;-0.005544128;0.007960431;0.005907978;-0.008892548;-0.0027638562;0.005470276;-0.0071487427;-9.775209;0.005907978;-0.008892548;-0.0027638562;1.0211515;-0.024075508;1.0269947;0.0;33795222;184
1;1;1;0.0014456562;-0.005593268;0.007985209;-0.002834928;-0.0049105575;0.0024852385;0.01034832;0.014936447;-9.774562;-0.002834928;-0.0049105575;0.0024852385;1.0224857;-0.020644188;1.028038;0.0;33795234;185
1;1;1;0.0014240243;-0.0052854693;0.008009168;0.007861319;-0.013846948;0.0023742074;0.0035276413;0.005153656;-9.782565;0.007861319;-0.013846948;0.0023742074;1.0211172;-0.024792671;1.0198917;0.0;33795246;186
1;1;1;0.0014158799;-0.0053487513;0.007956705;-7.6983636E-4;-0.0063171303;0.0066361125;0.0012512207;-0.014475822;-9.785467;-7.6983636E-4;-0.0063171303;0.0066361125;1.0177135;-0.028027534;1.013485;0.0;33795257;187
1;1;1;0.0013654436;-0.005392745;0.00800052;-0.0050202184;-0.0043931263;0.004387235;0.006623268;0.0051727295;-9.792225;-0.0050202184;-0.0043931263;0.004387235;1.0191994;-0.02716732;1.0156288;0.0;33795265;188
1;1;1;0.0013266355;-0.0054837554;0.007958299;-0.003903844;-0.0091065625;-0.0042096977;0.0059661865;0.0026922226;-9.782435;-0.003903844;-0.0091065625;-0.0042096977;1.0210047;-0.028663635;1.0193577;0.0;33795273;189
1;1;1;0.001293656;-0.0055896468;0.007944057;-0.003305737;-0.010590913;-0.0014096809;0.00319767;2.3078918E-4;-9.777724;-0.003305737;-0.010590913;-0.0014096809;1.0199633;-0.027578354;1.0190935;0.0;33795285;190
1;1;1;0.0013053406;-0.0056960867;0.007920105;0.0011549052;-0.010647201;-0.0023810512;0.018316269;2.0980835E-4;-9.7841;0.0011549052;-0.010647201;-0.0023810512;1.018527;-0.026727676;1.0160646;0.0;33795292;191
1;1;1;0.001305742;-0.0057663573;0.00792759;4.4487948E-5;-0.0070261015;7.5763004E-4;0.015715599;0.0051202774;-9.781739;4.4487948E-5;-0.0070261015;7.5763004E-4;1.0169258;-0.028642654;1.0154829;0.0;33795304;192
1;1;1;0.0013412362;-0.005890547;0.007891615;0.003528372;-0.012423712;-0.0035809218;0.012783051;-0.002257347;-9.774643;0.003528372;-0.012423712;-0.0035809218;1.0173836;-0.027123451;1.0173635;0.0;33795316;193
1;1;1;0.0013715853;-0.0060184794;0.007779329;0.0029681975;-0.0128083415;-0.011211254;0.00596714;0.012513161;-9.782295;0.0029681975;-0.0128083415;-0.011211254;1.0207233;-0.021917343;1.0267811;0.0;33795324;194
1;1;1;0.0013856116;-0.0061555863;0.007719872;0.001366604;-0.013718967;-0.0059267455;0.0015859604;0.022368431;-9.789852;0.001366604;-0.013718967;-0.0059267455;1.0183563;-0.027775764;1.0183191;0.0;33795335;195
1;1;1;0.0013359382;-0.0057659503;0.007681393;0.003688375;-0.009385679;-0.0038907137;0.017987251;-0.0047130585;-9.779259;0.003688375;-0.009385679;-0.0038907137;1.0165892;-0.027311325;1.0193777;0.0;33795343;196
1;1;1;0.0013317586;-0.005912025;0.0076263775;-4.965463E-4;-0.0146259535;-0.0123872105;0.00530529;-0.014521599;-9.772858;-4.965463E-4;-0.0146259535;-0.0123872105;1.0199709;-0.026021957;1.02392;0.0;33795355;197
1;1;1;0.0013300383;-0.006110457;0.0076284935;-1.7087355E-4;-0.019842813;2.3792883E-4;-0.0036211014;-0.004640579;-9.785658;-1.7087355E-4;-0.019842813;2.3792883E-4;1.0182734;-0.026046753;1.0190344;0.0;33795367;198
1;1;1;0.0013054347;-0.0061894883;0.0076443697;-0.0024504815;-0.007901077;0.001597972;0.0038547516;2.565384E-4;-9.787548;-0.0024504815;-0.007901077;0.001597972;1.020154;-0.028197289;1.0220604;0.0;33795375;199
1;1;1;0.0013371571;-0.0062852143;0.007645386;0.003172767;-0.009572433;1.14482464E-4;0.005965233;-0.0022182465;-9.782506;0.003172767;-0.009572433;1.14482464E-4;1.0202427;-0.03021717;1.0135756;0.0;33795386;200
1;1;1;0.0013289216;-0.006384085;0.007686283;-7.97791E-4;-0.009881513;0.004102759;0.008237839;-0.0046863556;-9.77992;-7.97791E-4;-0.009881513;0.004102759;1.0207624;-0.025008202;1.0191832;0.0;33795394;201
1;1;1;0.0014187339;-0.0065580746;0.0077238865;0.009005377;-0.01739371;0.0037847185;0.006623268;0.0027179718;-9.79226;0.009005377;-0.01739371;0.0037847185;1.021616;-0.02910328;1.0196056;0.0;33795406;202
1;1;1;0.0014626225;-0.00660447;0.007763233;0.004414819;-0.004633643;0.003941283;7.610321E-4;0.0076036453;-9.777784;0.004414819;-0.004633643;0.003941283;1.0201578;-0.024764061;1.0214396;0.0;33795414;203
1;1;1;0.0014173836;-0.0067597264;0.0077909157;-0.004505316;-0.015521585;0.0027907735;0.0074157715;-0.0047187805;-9.767639;-0.004505316;-0.015521585;0.0027907735;1.0179558;-0.02911377;1.0132456;0.0;33795425;204
1;1;1;0.0014896202;-0.006886671;0.007835489;0.0072536925;-0.012688221;0.0044755414;0.010673523;-0.009604454;-9.779825;0.0072536925;-0.012688221;0.0044755414;1.0186033;-0.023438454;1.0223007;0.0;33795433;205
1;1;1;0.0015024929;-0.006462672;0.007831256;0.005787839;-0.009047194;-4.518735E-4;0.003689766;-0.0071163177;-9.785197;0.005787839;-0.009047194;-4.518735E-4;1.0201702;-0.024067879;1.0262566;0.0;33795445;206
1;1;1;0.0015746607;-0.006551776;0.007916281;0.007229342;-0.008907231;0.0027271647;0.0051431656;-0.004705429;-9.770261;0.007229342;-0.008907231;0.0027271647;1.0208769;-0.022127151;1.0274725;0.0;33795457;207
1;1;1;0.0016206561;-0.0065328884;0.007893701;0.004584806;0.0018851486;-0.0022611318;-0.0015134811;-0.007115364;-9.780616;0.004584806;0.0018851486;-0.0022611318;1.0166645;-0.027561188;1.0159521;0.0;33795464;208
1;1;1;0.0017355088;-0.006625514;0.007916578;0.011500195;-0.009258812;0.0023030683;0.0010910034;0.010070801;-9.7826605;0.011500195;-0.009258812;0.0023030683;1.0199957;-0.02645874;1.0236883;0.0;33795476;209
1;1;1;0.0017894582;-0.006688017;0.007862386;0.005358918;-0.0062598847;-0.0054078056;4.3201447E-4;0.007590294;-9.772872;0.005358918;-0.0062598847;-0.0054078056;1.0207291;-0.024951935;1.0246649;0.0;33795484;210
1;1;1;0.0017209154;-0.006784464;0.007947106;-0.0067969346;-0.009630111;0.008488597;0.00807476;0.002673149;-9.777358;-0.0067969346;-0.009630111;0.008488597;1.0196781;-0.025795937;1.024826;0.0;33795492;211
1;1;1;0.0017603122;-0.0068934797;0.007915748;0.003918277;-0.010906981;-0.003116847;0.0132761;-0.0071496964;-9.782081;0.003918277;-0.010906981;-0.003116847;1.0188246;-0.028432846;1.0178757;0.0;33795507;212
1;1;1;0.0018092574;-0.0070719747;0.007936913;0.0049093384;-0.017845634;0.002148257;0.010674477;-0.0046930313;-9.779755;0.0049093384;-0.017845634;0.002148257;1.0180922;-0.028794289;1.0239992;0.0;33795515;213
1;1;1;0.0018655912;-0.0071410825;0.007884856;0.005596223;-0.0069203353;-0.0051928023;0.010345459;2.040863E-4;-9.774773;0.005596223;-0.0069203353;-0.0051928023;1.0206928;-0.024544716;1.0221567;0.0;33795523;214
1;1;1;0.001978951;-0.007213511;0.007790973;0.011268383;-0.007261255;-0.009374127;-0.0015125275;-0.0046596527;-9.7805805;0.011268383;-0.007261255;-0.009374127;1.0175896;-0.029202461;1.0251074;0.0;33795535;215
1;1;1;0.001925359;-0.0067912433;0.007678393;0.002690775;-0.006212373;-0.011288498;-0.005894661;2.8324127E-4;-9.788209;0.002690775;-0.006212373;-0.011288498;1.0183678;-0.029664993;1.0233126;0.0;33795542;216
1;1;1;0.0019336279;-0.0068818284;0.0075965193;8.420987E-4;-0.009056313;7.179638E-4;-0.0010185242;0.005180359;-9.787807;8.420987E-4;-0.009056313;7.179638E-4;1.0186262;-0.024039268;1.026864;0.0;33795554;217
1;1;1;0.0018790448;-0.0069913124;0.007531043;-0.0055034976;-0.010960956;-0.006526483;-0.0031290054;-0.007077217;-9.793062;-0.0055034976;-0.010960956;-0.006526483;1.0195179;-0.022529602;1.0285339;0.0;33795562;218
1;1;1;0.001959374;-0.0071353843;0.0075209495;0.008025925;-0.014409024;-9.815915E-4;-0.0075101852;-0.0021343231;-9.80069;0.008025925;-0.014409024;-9.815915E-4;1.0213537;-0.02541542;1.0219517;0.0;33795578;219
1;1;1;0.0020517118;-0.007226211;0.0075801904;0.009276421;-0.009070557;0.0059422045;0.005965233;-0.004673958;-9.782541;0.009276421;-0.009070557;0.0059422045;1.0195837;-0.027339935;1.0209055;0.0;33795585;220
1;1;1;0.0020087026;-0.00730446;0.007572681;-0.004306246;-0.007826379;-7.3481334E-4;0.010840416;0.00758934;-9.782035;-0.004306246;-0.007826379;-7.3481334E-4;1.0189142;-0.02839756;1.0215359;0.0;33795597;221
1;1;1;0.0020501246;-0.007459961;0.007495931;0.004085773;-0.01556538;-0.007643378;-0.0037841797;0.0076293945;-9.783027;0.004085773;-0.01556538;-0.007643378;1.0190449;-0.027098656;1.022255;0.0;33795605;222
1;1;1;0.0020702595;-0.0074935975;0.0074585206;0.0019855474;-0.0033713453;-0.0037340948;0.008072853;-0.009604454;-9.7775345;0.0019855474;-0.0033713453;-0.0037340948;1.0168104;-0.02968216;1.0193443;0.0;33795613;223
1;1;1;0.0021467027;-0.0076095215;0.007431214;0.0076236925;-0.011598154;-0.0027060937;-0.003293991;-0.011993408;-9.790676;0.0076236925;-0.011598154;-0.0027060937;1.0175114;-0.026021004;1.0203676;0.0;33795625;224
1;1;1;0.0021379697;-0.0077561415;0.0073944065;-9.016744E-4;-0.014669916;-0.0036490024;0.0064582825;-0.0046539307;-9.789909;-9.016744E-4;-0.014669916;-0.0036490024;1.0205727;-0.027749062;1.024149;0.0;33795632;225
1;1;1;0.0020758796;-0.0074233264;0.0073287026;0.006646003;-0.010469998;-0.0066398284;0.01116848;0.0051469803;-9.786982;0.006646003;-0.010469998;-0.0066398284;1.0198374;-0.022547722;1.0271788;0.0;33795644;226
1;1;1;0.0020651394;-0.0075385887;0.00739303;-0.0010585784;-0.011521819;0.0026000775;0.0036916733;0.007616043;-9.7849865;-0.0010585784;-0.011521819;0.0026000775;1.0204992;-0.025995255;1.027379;0.0;33795656;227
1;1;1;0.0020598262;-0.0076894504;0.0073198583;-5.8707927E-4;-0.015101159;-0.0072858934;-0.0018415451;-0.004673004;-9.775669;-5.8707927E-4;-0.015101159;-0.0072858934;1.0177479;-0.031850815;1.0184422;0.0;33795664;228
1;1;1;0.0021190685;-0.007864249;0.0072922674;0.005902773;-0.017485762;-0.002722352;0.0057992935;-0.0071353912;-9.780121;0.005902773;-0.017485762;-0.002722352;1.0171185;-0.03401661;1.0163097;0.0;33795675;229
1;1;1;0.0021083963;-0.008014805;0.0073416564;-0.0010280753;-0.015044845;0.004970637;0.004511833;-0.007083893;-9.797479;-0.0010280753;-0.015044845;0.004970637;1.0209732;-0.026493073;1.0216799;0.0;33795683;230
1;1;1;0.002094355;-0.008123404;0.0073460354;-0.0014004819;-0.010859039;4.6059256E-4;-0.0027990341;3.0231476E-4;-9.797869;-0.0014004819;-0.010859039;4.6059256E-4;1.0189371;-0.028859138;1.0187836;0.0;33795695;231
1;1;1;0.00210995;-0.008234307;0.0073505226;0.0015631595;-0.011089207;4.7210994E-4;-0.006222725;-0.0021848679;-9.783332;0.0015631595;-0.011089207;4.7210994E-4;1.0190105;-0.027578354;1.0176706;0.0;33795707;232
1;1;1;0.0021417735;-0.008366815;0.007307544;0.0031466682;-0.01325979;-0.004269779;0.005636215;-0.0022306442;-9.777595;0.0031466682;-0.01325979;-0.004269779;1.020525;-0.027096748;1.0246134;0.0;33795714;233
1;1;1;0.0021297582;-0.008470242;0.007362658;-0.0011550662;-0.010330857;0.005533329;0.014099121;2.48909E-4;-9.794255;-0.0011550662;-0.010330857;0.005533329;1.0232439;-0.021074295;1.0287561;0.0;33795726;234
1;1;1;0.0021091234;-0.008598206;0.007353502;-0.0020711706;-0.012798048;-8.8867603E-4;-0.0031280518;-0.0021657944;-9.792992;-0.0020711706;-0.012798048;-8.8867603E-4;1.0191717;-0.024682999;1.0280209;0.0;33795734;235
1;1;1;0.0018657827;-0.0081824735;0.007403615;-0.009651413;-0.010198702;0.004916482;-0.008825302;2.6988983E-4;-9.781006;-0.009651413;-0.010198702;0.004916482;1.0193758;-0.024736404;1.0230026;0.0;33795746;236
1;1;1;0.0019551164;-0.008343643;0.007578917;0.008941122;-0.016115792;0.0028414044;0.005636215;-0.0046863556;-9.77763;0.008941122;-0.016115792;0.0028414044;1.0175858;-0.028633118;1.0173454;0.0;33795753;237
1;1;1;0.002044314;-0.008446581;0.0076440168;0.008974531;-0.010280321;0.006530504;-0.0013465881;0.0027122498;-9.78293;0.008974531;-0.010280321;0.006530504;1.0193491;-0.029263496;1.0215425;0.0;33795765;238
1;1;1;0.0020445196;-0.00854993;0.007627126;6.4375545E-6;-0.010338367;-0.0016682298;-0.0057296753;-0.0021648407;-9.7907;6.4375545E-6;-0.010338367;-0.0016682298;1.018075;-0.030586243;1.0168791;0.0;33795777;239
1;1;1;0.002150486;-0.00860135;0.007587214;0.010562477;-0.0051501663;-0.003980098;0.0033607483;-0.009584427;-9.780321;0.010562477;-0.0051501663;-0.003980098;1.0202856;-0.027812004;1.0175018;0.0;33795785;240
1;1;1;0.002266924;-0.0087125115;0.0076230536;0.01167483;-0.011108239;0.0036083495;0.005636215;-0.0046863556;-9.77763;0.01167483;-0.011108239;0.0036083495;1.0170469;-0.029545784;1.0113621;0.0;33795796;241
1;1;1;0.0022091826;-0.008810594;0.00766352;-0.00573867;-0.009799056;0.004068267;-0.0037851334;2.632141E-4;-9.783132;-0.00573867;-0.009799056;0.004068267;1.0180597;-0.027142525;1.016489;0.0;33795804;242
1;1;1;0.0021744554;-0.008918745;0.0076649277;-0.0034715785;-0.010814915;1.644676E-4;-0.0031280518;-0.0021657944;-9.792992;-0.0034715785;-0.010814915;1.644676E-4;1.0185184;-0.028604507;1.0187664;0.0;33795816;243
1;1;1;0.0022104033;-0.009001498;0.007617477;0.0035525258;-0.008285662;-0.004726455;0.0010881424;-0.0071163177;-9.782907;0.0035525258;-0.008285662;-0.004726455;1.0183725;-0.025143623;1.0199661;0.0;33795824;244
1;1;1;0.002191398;-0.009081233;0.007588089;-0.0019270252;-0.007979744;-0.0029208828;-0.00866127;-0.00954628;-9.783603;-0.0019270252;-0.007979744;-0.0029208828;1.0195742;-0.02794838;1.0211248;0.0;33795835;245
1;1;1;0.0020907964;-0.008712387;0.00759077;0.0014631959;-0.010572194;1.9830196E-4;0.006128311;-0.0071229935;-9.785032;0.0014631959;-0.010572194;1.9830196E-4;1.020237;-0.025576591;1.0228004;0.0;33795843;246
1;1;1;0.0021087043;-0.008818114;0.0077828337;0.001773904;-0.01057604;6.1872014E-4;0.013771057;0.0026922226;-9.789308;0.001773904;-0.01057604;6.1872014E-4;1.0187826;-0.027297974;1.0204096;0.0;33795855;247
1;1;1;0.002226794;-0.008880954;0.0077915634;0.011816647;-0.0062819654;8.8624476E-4;-5.2547455E-4;-0.0046215057;-9.795317;0.011816647;-0.0062819654;8.8624476E-4;1.0187941;-0.025343895;1.0224981;0.0;33795867;248
1;1;1;0.0022432203;-0.00897475;0.007846257;0.0016914817;-0.009367132;0.0054904646;0.00319767;-0.00467968;-9.777795;0.0016914817;-0.009367132;0.0054904646;1.0170927;-0.032260895;1.0163412;0.0;33795875;249
1;1;1;0.0022818195;-0.009071839;0.007806536;0.0038242277;-0.009717904;-0.003949923;-0.007537842;0.0026741028;-9.763613;0.0038242277;-0.009717904;-0.003949923;1.0176945;-0.028755188;1.0237494;0.0;33795886;250
1;1;1;0.0023549483;-0.0091222245;0.007751598;0.007262931;-0.0050513446;-0.0054817637;-0.006716728;-0.0022039413;-9.775965;0.007262931;-0.0050513446;-0.0054817637;1.0202799;-0.02576828;1.0248575;0.0;33795894;251
1;1;1;0.002423457;-0.009251851;0.0077360743;0.0068364004;-0.012966357;-0.0015216017;0.0010871887;-0.012026787;-9.782977;0.0068364004;-0.012966357;-0.0015216017;1.0190182;-0.024677277;1.0248127;0.0;33795906;252
1;1;1;0.0024335557;-0.0093604475;0.0077511384;0.0010239903;-0.010855705;0.0015328488;-0.0054016113;-0.009519577;-9.795718;0.0010239903;-0.010855705;0.0015328488;1.017415;-0.031208038;1.0147743;0.0;33795917;253
1;1;1;0.002458655;-0.009493059;0.007831498;0.002585588;-0.0132413125;0.008068095;-0.0063886642;-0.0071020126;-9.780947;0.002585588;-0.0132413125;0.008068095;1.0190239;-0.028139114;1.0226889;0.0;33795925;254
1;1;1;0.0024381992;-0.00960899;0.007859787;-0.002018733;-0.011586031;0.0028572828;0.010674477;2.1743774E-4;-9.779684;-0.002018733;-0.011586031;0.0028572828;1.0203371;-0.029907227;1.0197535;0.0;33795937;255
1;1;1;0.0023506351;-0.009161859;0.007829191;0.0021513002;-0.008764082;-0.003131838;0.0035276413;0.005153656;-9.782565;0.0021513002;-0.008764082;-0.003131838;1.0210648;-0.028832436;1.0209541;0.0;33795945;256
1;1;1;0.0023484263;-0.009232778;0.007947776;-2.128792E-4;-0.007088494;0.0023024967;-0.00329113;0.0051937103;-9.790429;-2.128792E-4;-0.007088494;0.0023024967;1.0169725;-0.03312874;1.0153999;0.0;33795953;257
1;1;1;0.002338017;-0.0093081575;0.007958136;-0.0010312166;-0.0075353584;0.001053567;0.011332512;-0.0022115707;-9.789543;-0.0010312166;-0.0075353584;0.001053567;1.0212135;-0.023406029;1.0258617;0.0;33795964;258
1;1;1;0.002287092;-0.009356292;0.0079142405;-0.0051333616;-0.004823601;-0.0043780184;0.004183769;2.6893616E-4;-9.79246;-0.0051333616;-0.004823601;-0.0043780184;1.0195503;-0.02360344;1.0257702;0.0;33795976;259
1;1;1;0.0023650592;-0.009441487;0.0077717123;0.007663047;-0.008552606;-0.014232422;0.0036907196;2.4986267E-4;-9.785091;0.007663047;-0.008552606;-0.014232422;1.0167551;-0.03093052;1.0202351;0.0;33795984;260
1;1;1;0.0024347696;-0.009510056;0.007744229;0.0069449292;-0.006863384;-0.002731829;-0.0031280518;-0.0046215057;-9.793027;0.0069449292;-0.006863384;-0.002731829;1.0178776;-0.029257774;1.0164394;0.0;33795996;261
1;1;1;0.0024191102;-0.009480089;0.0077703614;-0.001541099;0.003003203;0.0026057537;0.004183769;-0.0021858215;-9.792496;-0.001541099;0.003003203;0.0026057537;1.0182734;-0.029880524;1.0194159;0.0;33796003;262
1;1;1;0.0024784752;-0.009536188;0.0077579077;0.005924754;-0.0056127673;-0.0012314317;0.0012540817;0.0027122498;-9.785221;0.005924754;-0.0056127673;-0.0012314317;1.019598;-0.025539398;1.0255127;0.0;33796015;263
1;1;1;0.002464286;-0.009646391;0.0077890004;-0.0013889917;-0.011012676;0.0031359913;-0.006222725;2.6988983E-4;-9.783297;-0.0013889917;-0.011012676;0.0031359913;1.0198336;-0.0277462;1.0204554;0.0;33796027;264
1;1;1;0.0025801233;-0.009691332;0.007821448;0.011615093;-0.0044856644;0.0032559934;0.0036907196;-0.0046606064;-9.785162;0.011615093;-0.0044856644;0.0032559934;1.0189924;-0.032987595;1.0111675;0.0;33796035;265
1;1;1;0.002483032;-0.009275389;0.007805976;0.0047712945;-0.007868671;-0.0016486063;0.003525734;-0.0071229935;-9.782742;0.0047712945;-0.007868671;-0.0016486063;1.0188503;-0.029482841;1.017396;0.0;33796046;266
1;1;1;0.002468921;-0.009387721;0.008075449;-0.0013709425;-0.011219536;0.0075740987;0.008237839;2.2411346E-4;-9.779849;-0.0013709425;-0.011219536;0.0075740987;1.0232859;-0.025396347;1.023881;0.0;33796054;267
1;1;1;0.0023964532;-0.0095488485;0.00805195;-0.0072690747;-0.01611813;-0.0023109245;0.011003494;-0.0022249222;-9.784631;-0.0072690747;-0.01611813;-0.0023109245;1.0193319;-0.028826714;1.0190372;0.0;33796066;268
1;1;1;0.0023945386;-0.009663973;0.008052747;-1.9055624E-4;-0.011512241;1.07325206E-4;-0.0037841797;0.0076293945;-9.783027;-1.9055624E-4;-0.011512241;1.07325206E-4;1.0171738;-0.029314995;1.0097694;0.0;33796074;269
1;1;1;0.0024631761;-0.009727658;0.00803971;0.0068511777;-0.006371567;-0.0012879779;0.01294899;0.0026597977;-9.777028;0.0068511777;-0.006371567;-0.0012879779;1.0181789;-0.028847694;1.0153217;0.0;33796085;270
1;1;1;0.0025030393;-0.009806981;0.008022122;0.003969118;-0.007936678;-0.0017391271;-0.0013484955;-0.007109642;-9.7830715;0.003969118;-0.007936678;-0.0017391271;1.0179634;-0.030509949;1.0207605;0.0;33796097;271
1;1;1;0.002600071;-0.0099765565;0.00807488;0.009755455;-0.01694393;0.0053185313;0.0031967163;-0.0071353912;-9.77783;0.009755455;-0.01694393;0.0053185313;1.0190268;-0.029907227;1.0178585;0.0;33796105;272
1;1;1;0.002689998;-0.010114108;0.008058322;0.008976011;-0.013759513;-0.0016194611;2.6798248E-4;0.0026741028;-9.770485;0.008976011;-0.013759513;-0.0016194611;1.0163994;-0.033346176;1.0148153;0.0;33796117;273
1;1;1;0.0027529318;-0.010180172;0.007999896;0.0062341504;-0.0066218683;-0.0058241175;0.008238792;0.007590294;-9.779744;0.0062341504;-0.0066218683;-0.0058241175;1.01863;-0.029503822;1.0150042;0.0;33796125;274
1;1;1;0.002850598;-0.010237172;0.008029507;0.009796746;-0.005691949;0.0029771884;0.008565903;-0.009585381;-9.784902;0.009796746;-0.005691949;0.0029771884;1.0198736;-0.025763512;1.0247393;0.0;33796136;275
1;1;1;0.0028128603;-0.009792685;0.007992747;0.008127608;-0.006835437;-0.003757188;-0.008825302;2.6988983E-4;-9.781006;0.008127608;-0.006835437;-0.003757188;1.0216818;-0.029292107;1.0185986;0.0;33796144;276
1;1;1;0.0028317692;-0.0099031525;0.0081606265;0.0018738094;-0.0110472385;8.0279674E-4;-0.0062217712;0.005180359;-9.783226;0.0018738094;-0.0110472385;8.0279674E-4;1.0172167;-0.03273678;1.0123549;0.0;33796156;277
1;1;1;0.0029062522;-0.00997882;0.008132506;0.0074203727;-0.007574598;-0.002790236;0.005801201;0.0051412582;-9.779944;0.0074203727;-0.007574598;-0.002790236;1.015912;-0.0329237;1.012969;0.0;33796167;278
1;1;1;0.0028733802;-0.010064825;0.008121265;-0.0032984389;-0.008603502;-0.0010989616;0.01294899;0.0026597977;-9.777028;-0.0032984389;-0.008603502;-0.0010989616;1.0187788;-0.029278755;1.0157022;0.0;33796175;279
1;1;1;0.0028437045;-0.010207191;0.008119535;-0.002969354;-0.014237072;-1.3220563E-4;0.0038557053;0.0027122498;-9.787513;-0.002969354;-0.014237072;-1.3220563E-4;1.0174646;-0.032957077;1.0119095;0.0;33796187;280
1;1;1;0.0028665229;-0.0103446115;0.008136838;0.0022995705;-0.013736865;0.0017690505;0.006129265;2.4318695E-4;-9.784926;0.0022995705;-0.013736865;0.0017690505;1.0156679;-0.030553818;1.0130014;0.0;33796195;281
1;1;1;0.0028350877;-0.010478641;0.008121607;-0.0031595815;-0.01340717;-0.0014843338;0.007414818;-0.009630203;-9.76771;-0.0031595815;-0.01340717;-0.0014843338;1.0162144;-0.031624794;1.0141516;0.0;33796203;282
1;1;1;0.0029390522;-0.010582235;0.00804806;0.010319065;-0.010380256;-0.0073242756;0.00497818;1.9836426E-4;-9.767735;0.010319065;-0.010380256;-0.0073242756;1.0200996;-0.027060509;1.0247278;0.0;33796218;283
1;1;1;0.0029917522;-0.010618505;0.008064217;0.005287092;-0.0036222795;0.0016263026;0.011003494;2.2983551E-4;-9.7845955;0.005287092;-0.0036222795;0.0016263026;1.0231209;-0.028569221;1.0289736;0.0;33796226;284
1;1;1;0.0029922673;-0.010701363;0.008028973;1.3957639E-5;-0.008296287;-0.0034994255;0.010838509;-0.0071430206;-9.782246;1.3957639E-5;-0.008296287;-0.0034994255;1.0201187;-0.028619766;1.0196705;0.0;33796234;285
1;1;1;0.0029560504;-0.010341336;0.0080890665;0.010869426;-0.010130798;0.0059233145;5.950928E-4;-0.00467968;-9.775504;0.010869426;-0.010130798;0.0059233145;1.0203276;-0.03015232;1.0173693;0.0;33796246;286
1;1;1;0.0029766096;-0.010443193;0.008365694;0.00198924;-0.010194234;-0.0018908193;-0.0065517426;-0.004652977;-9.778456;0.00198924;-0.010194234;-0.0018908193;1.0186701;-0.029212952;1.0220976;0.0;33796253;287
1;1;1;0.0030324135;-0.010570731;0.0083667785;0.0055813505;-0.012753234;1.4700579E-4;0.012454033;-0.009636879;-9.769835;0.0055813505;-0.012753234;1.4700579E-4;1.0157623;-0.030303001;1.0168982;0.0;33796265;288
1;1;1;0.0029844034;-0.010705864;0.008310471;-0.004860779;-0.013530096;-0.0055895913;0.013113022;0.0075769424;-9.779414;-0.004860779;-0.013530096;-0.0055895913;1.0178776;-0.032479286;1.0169668;0.0;33796273;289
1;1;1;0.0029507785;-0.010784995;0.008324607;-0.003347095;-0.007908938;0.0014368846;-6.8950653E-4;0.002737999;-9.792755;-0.003347095;-0.007908938;0.0014368846;1.0178747;-0.03355789;1.0171776;0.0;33796285;290
1;1;1;0.0029033183;-0.010852057;0.008336626;-0.0047330963;-0.006702511;0.0012214779;0.007745743;0.0026597977;-9.772446;-0.0047330963;-0.006702511;0.0012214779;1.0201883;-0.026885986;1.02108;0.0;33796296;291
1;1;1;0.0029491694;-0.0109215155;0.008288146;0.0045322385;-0.006959881;-0.004827344;0.01683712;0.0075178146;-9.76189;0.0045322385;-0.006959881;-0.004827344;1.0179615;-0.027526855;1.0177526;0.0;33796308;292
1;1;1;0.002889399;-0.011049;0.008285375;-0.0059800874;-0.012749058;-2.3978678E-4;0.006293297;-0.002204895;-9.787418;-0.0059800874;-0.012749058;-2.3978678E-4;1.0178556;-0.032263756;1.0172005;0.0;33796316;293
1;1;1;0.0028793386;-0.0110988;0.008269847;-0.0010231377;-0.0049842545;-0.0015380911;0.0014162064;-0.009558678;-9.787854;-0.0010231377;-0.0049842545;-0.0015380911;1.0201416;-0.030126572;1.0196428;0.0;33796328;294
1;1;1;0.0029745428;-0.011174338;0.008268971;0.0095194895;-0.007553968;-6.517369E-5;0.006457329;-0.007109642;-9.789945;0.0095194895;-0.007553968;-6.517369E-5;1.0208387;-0.029447556;1.0238104;0.0;33796335;295
1;1;1;0.002950902;-0.010769835;0.008233314;0.007406878;-0.008058666;-0.0036399073;0.003030777;-0.016963959;-9.775515;0.007406878;-0.008058666;-0.0036399073;1.019083;-0.03289795;1.0202217;0.0;33796343;296
1;1;1;0.0030223322;-0.0108277835;0.008506823;0.0071816714;-0.0057795043;0.0067289756;0.01228714;-0.019465446;-9.76752;0.0071816714;-0.0057795043;0.0067289756;1.0197802;-0.031437874;1.0166311;0.0;33796355;297
1;1;1;0.003138901;-0.010969498;0.008491476;0.011639903;-0.014176371;-0.0014906398;-0.0052375793;-0.00705719;-9.79814;0.011639903;-0.014176371;-0.0014906398;1.0174685;-0.03161621;1.0167303;0.0;33796363;298
1;1;1;0.003160319;-0.011108024;0.008527603;0.0021816692;-0.01384071;0.0036563417;-0.0011844635;-0.0071029663;-9.785527;0.0021816692;-0.01384071;0.0036563417;1.0174913;-0.03218746;1.02427;0.0;33796375;299
1;1;1;0.0031177339;-0.011165061;0.008561295;-0.0042209155;-0.005693034;0.003386879;9.2315674E-4;-0.009577751;-9.780486;-0.0042209155;-0.005693034;0.003386879;1.0176935;-0.029045105;1.0161057;0.0;33796386;300
1;1;1;0.0031128428;-0.011247496;0.008572347;-4.7680986E-4;-0.008239972;0.0011308499;-0.0037851334;2.632141E-4;-9.783132;-4.7680986E-4;-0.008239972;0.0011308499;1.0176554;-0.028104782;1.0241241;0.0;33796394;301
1;1;1;0.0031114034;-0.011391205;0.008611194;-9.998673E-5;-0.014358521;0.0039290804;-0.005566597;-0.009526253;-9.7932625;-9.998673E-5;-0.014358521;0.0039290804;1.0194483;-0.02889347;1.0125446;0.0;33796406;302
1;1;1;0.0031689836;-0.011462264;0.008666842;0.005821562;-0.007088246;0.0055868668;0.005800247;2.3078918E-4;-9.780015;0.005821562;-0.007088246;0.0055868668;1.0166769;-0.029604912;1.0233583;0.0;33796414;303
1;1;1;0.003132229;-0.0115457745;0.008628584;-0.0037195336;-0.008362986;-0.0037992292;-0.0018405914;0.005147934;-9.775528;-0.0037195336;-0.008362986;-0.0037992292;1.0192041;-0.03267765;1.0211496;0.0;33796425;304
1;1;1;0.0030631463;-0.011653642;0.008594959;-0.0069473083;-0.010796793;-0.0033290398;0.005473137;0.012494087;-9.774928;-0.0069473083;-0.010796793;-0.0033290398;1.0225763;-0.023389816;1.029499;0.0;33796437;305
1;1;1;0.0030248642;-0.011217175;0.008641042;0.0023997421;-0.0062471856;0.004546188;0.016043663;0.00758934;-9.786617;0.0023997421;-0.0062471856;0.004546188;1.0173817;-0.03469181;1.010499;0.0;33796445;306
1;1;1;0.0030245087;-0.011346603;0.008944952;-7.807127E-5;-0.012949761;8.969778E-4;0.0132761;-0.009605408;-9.782116;-7.807127E-5;-0.012949761;8.969778E-4;1.0185375;-0.028770447;1.0234718;0.0;33796457;307
1;1;1;0.0030525683;-0.011487634;0.008883991;0.0027363566;-0.014121569;-0.00605262;-0.0016775131;-0.009577751;-9.778195;0.0027363566;-0.014121569;-0.00605262;1.0213289;-0.026431084;1.0248032;0.0;33796464;308
1;1;1;0.003047539;-0.011580781;0.008814735;-5.828645E-4;-0.009336057;-0.006896443;0.0053071976;2.1076202E-4;-9.772647;-5.828645E-4;-0.009336057;-0.006896443;1.0185976;-0.02639103;1.0248928;0.0;33796476;309
1;1;1;0.0031170791;-0.011725868;0.008770191;0.006902249;-0.014522276;-0.0044093146;0.007745743;0.0026597977;-9.772446;0.006902249;-0.014522276;-0.0044093146;1.0166397;-0.031394005;1.016468;0.0;33796484;310
1;1;1;0.0031253335;-0.011739308;0.008704439;7.4826716E-4;-0.0013643892;-0.0065706917;0.008566856;2.3651123E-4;-9.78476;7.4826716E-4;-0.0013643892;-0.0065706917;1.0171394;-0.02816391;1.0174646;0.0;33796496;311
1;1;1;0.0032339045;-0.011901208;0.008582443;0.010712868;-0.016228516;-0.012147515;0.0038547516;-0.0046539307;-9.787619;0.010712868;-0.016228516;-0.012147515;1.0174437;-0.031002045;1.0142269;0.0;33796507;312
1;1;1;0.003210532;-0.012035983;0.008530831;-0.0023991948;-0.013493721;-0.005117228;0.017493248;-0.007188797;-9.771926;-0.0023991948;-0.013493721;-0.005117228;1.0190687;-0.028578758;1.02213;0.0;33796515;313
1;1;1;0.0033438213;-0.012147854;0.008445064;0.013225214;-0.011215072;-0.008539621;0.012782097;-0.009624481;-9.774749;0.013225214;-0.011215072;-0.008539621;1.0160074;-0.035326958;1.0094976;0.0;33796527;314
1;1;1;0.0033310892;-0.012287172;0.008377516;-0.001355642;-0.013953927;-0.006707647;-0.008825302;-0.004640579;-9.781076;-0.001355642;-0.013953927;-0.006707647;1.0206785;-0.02928543;1.0178604;0.0;33796535;315
1;1;1;0.003211968;-0.01189649;0.008373149;-7.286543E-4;-0.01338993;-5.450025E-4;-0.01044178;-0.011968613;-9.793628;-7.286543E-4;-0.01338993;-5.450025E-4;1.0198765;-0.03123951;1.0152664;0.0;33796546;316
1;1;1;0.0032632882;-0.012001636;0.00857679;0.0051184245;-0.010519269;0.0016081992;-0.008169174;-0.01198101;-9.791006;0.0051184245;-0.010519269;0.0016081992;1.0233097;-0.021347046;1.0202074;0.0;33796554;317
1;1;1;0.0032942523;-0.012145646;0.008568392;0.0030860575;-0.014403412;-7.929268E-4;0.003689766;-0.0071163177;-9.785197;0.0030860575;-0.014403412;-7.929268E-4;1.0167198;-0.030809402;1.0103073;0.0;33796566;318
1;1;1;0.0033347479;-0.012178672;0.008517601;0.003987713;-0.0033193189;-0.005067509;0.008237839;-0.0046863556;-9.77992;0.003987713;-0.0033193189;-0.005067509;1.0192223;-0.024546623;1.0169563;0.0;33796578;319
1;1;1;0.0033465994;-0.012322878;0.008570341;0.0012496319;-0.014402841;0.005321948;0.0040197372;-0.004647255;-9.790074;0.0012496319;-0.014402841;0.005321948;1.0188017;-0.027998924;1.0150414;0.0;33796585;320
1;1;1;0.0034597623;-0.012426524;0.008570869;0.011316897;-0.010364354;8.825391E-5;0.005800247;2.3078918E-4;-9.780015;0.011316897;-0.010364354;8.825391E-5;1.0177078;-0.02969551;1.0158691;0.0;33796597;321
1;1;1;0.0035650774;-0.012524715;0.008637435;0.010614601;-0.009795336;0.0066903606;0.008238792;0.007590294;-9.779744;0.010614601;-0.009795336;0.0066903606;1.0164967;-0.031451225;1.0105143;0.0;33796605;322
1;1;1;0.0035663748;-0.01265319;0.0085737975;4.987287E-5;-0.012870089;-0.0063171717;0.0033626556;0.0026931763;-9.780145;4.987287E-5;-0.012870089;-0.0063171717;1.0183935;-0.027111053;1.0173264;0.0;33796613;323
1;1;1;0.003586202;-0.012782231;0.008587283;0.0019996222;-0.012899126;0.0013944315;0.006129265;2.4318695E-4;-9.784926;0.0019996222;-0.012899126;0.0013944315;1.0201015;-0.027352333;1.0169487;0.0;33796625;324
1;1;1;0.0035836757;-0.012901121;0.0085535515;-2.9588558E-4;-0.011900966;-0.0033302663;0.006293297;-0.0046606064;-9.787454;-2.9588558E-4;-0.011900966;-0.0033302663;1.0184708;-0.029697418;1.016818;0.0;33796636;325
1;1;1;0.0034940403;-0.012587685;0.0085987905;7.205255E-4;-0.0148702515;0.004446607;0.010510445;-0.0022439957;-9.777264;7.205255E-4;-0.0148702515;0.004446607;1.0194473;-0.029754639;1.0125275;0.0;33796648;326
1;1;1;0.0035122782;-0.012615771;0.008714218;0.001854986;-0.0027994064;0.0035926977;0.010839462;2.2315979E-4;-9.78214;0.001854986;-0.0027994064;0.0035926977;1.0206299;-0.029711723;1.0185347;0.0;33796656;327
1;1;1;0.0036116652;-0.012729966;0.008689188;0.009907028;-0.0114282;-0.0024617475;0.0136060715;0.0051403046;-9.786817;0.009907028;-0.0114282;-0.0024617475;1.017005;-0.025595665;1.0161343;0.0;33796667;328
1;1;1;0.003518005;-0.012743519;0.008681002;-0.009376447;-0.0013577524;-8.137826E-4;0.0036916733;0.002705574;-9.785056;-0.009376447;-0.0013577524;-8.137826E-4;1.0169268;-0.029257774;1.015151;0.0;33796675;329
1;1;1;0.0036132229;-0.0128658675;0.008682481;0.009523829;-0.012233987;1.9138964E-4;0.0015821457;-0.0021848679;-9.790204;0.009523829;-0.012233987;1.9138964E-4;1.0155306;-0.02991581;1.0118656;0.0;33796683;330
1;1;1;0.0035983662;-0.01289442;0.008657323;-0.0015180481;-0.002864274;-0.0025050985;0.004020691;0.0027189255;-9.7899685;-0.0015180481;-0.002864274;-0.0025050985;1.0151501;-0.032039642;1.0143194;0.0;33796695;331
1;1;1;0.003682165;-0.013000888;0.008639217;0.008356428;-0.010653218;-0.001771929;0.004020691;0.005173683;-9.789933;0.008356428;-0.010653218;-0.001771929;1.0161295;-0.033388138;1.0102282;0.0;33796703;332
1;1;1;0.003744193;-0.013087224;0.008646669;0.0062125484;-0.008630708;7.7719864E-4;0.0067892075;0.010089874;-9.794611;0.0062125484;-0.008630708;7.7719864E-4;1.0200443;-0.024511337;1.0222588;0.0;33796718;333
1;1;1;0.0036518879;-0.013201357;0.008666077;-0.00920502;-0.011406079;0.001982544;0.011004448;0.0051403046;-9.784525;-0.00920502;-0.011406079;0.001982544;1.0222816;-0.02097416;1.0352421;0.0;33796726;334
1;1;1;0.0036409944;-0.013302265;0.008700819;-0.0010433058;-0.0100780595;0.0035107655;-0.002169609;2.2506714E-4;-9.770685;-0.0010433058;-0.0100780595;0.0035107655;1.0171556;-0.028315544;1.025012;0.0;33796734;335
1;1;1;0.0035343366;-0.01281288;0.008667747;0.0030594252;-0.0043412726;-0.0034688283;0.0069236755;0.0026283264;-9.760165;0.0030594252;-0.0043412726;-0.0034688283;1.0204048;-0.022521019;1.0278053;0.0;33796746;336
1;1;1;0.003536618;-0.0129957;0.008854294;2.4024051E-4;-0.018277438;0.003401065;0.0040187836;-0.0071029663;-9.79011;2.4024051E-4;-0.018277438;0.003401065;1.0215054;-0.02555275;1.0275736;0.0;33796753;337
1;1;1;0.0035360039;-0.013059199;0.008851085;-6.557576E-5;-0.0063508013;-2.9847157E-4;-0.0031280518;-0.0021657944;-9.792992;-6.557576E-5;-0.0063508013;-2.9847157E-4;1.0164099;-0.030918121;1.0217247;0.0;33796765;338
1;1;1;0.0035751627;-0.013162383;0.008879975;0.0039537256;-0.010307869;0.0029252616;-0.004442215;0.0076036453;-9.773203;0.0039537256;-0.010307869;0.0029252616;1.0137844;-0.037240982;1.0088911;0.0;33796777;339
1;1;1;0.0036270216;-0.013290419;0.008848871;0.0051453183;-0.012814624;-0.0030640368;0.010345459;2.040863E-4;-9.774773;0.0051453183;-0.012814624;-0.0030640368;1.0161638;-0.028359413;1.0192385;0.0;33796785;340
1;1;1;0.003677213;-0.013419366;0.008819222;0.0049795522;-0.012905417;-0.002917316;0.010344505;-0.007162094;-9.7748785;0.0049795522;-0.012905417;-0.002917316;1.0161428;-0.032004356;1.0200853;0.0;33796796;341
1;1;1;0.003726146;-0.013587617;0.008749279;0.0047988296;-0.016851055;-0.006931155;-0.010602951;0.0027580261;-9.790959;0.0047988296;-0.016851055;-0.006931155;1.0173197;-0.031152725;1.0208502;0.0;33796804;342
1;1;1;0.0037642566;-0.013717457;0.008704218;0.0037495918;-0.01300053;-0.00445709;-0.00329113;0.0076494217;-9.790395;0.0037495918;-0.01300053;-0.00445709;1.0194864;-0.030121803;1.0198402;0.0;33796816;343
1;1;1;0.0038042692;-0.01380345;0.008729363;0.004035755;-0.008589821;0.0025467565;7.6007843E-4;-0.0022172928;-9.777925;0.004035755;-0.008589821;0.0025467565;1.0222359;-0.027990341;1.0216208;0.0;33796828;344
1;1;1;0.0038475718;-0.013882334;0.008659893;0.0042343307;-0.007914601;-0.00691628;0.007580757;-0.0022563934;-9.77006;0.0042343307;-0.007914601;-0.00691628;1.020937;-0.030779839;1.0201273;0.0;33796835;345
1;1;1;0.0037096587;-0.013521324;0.008708774;-0.0010849469;-0.013220803;0.0047635394;0.010509491;-0.0071554184;-9.777334;-0.0010849469;-0.013220803;0.0047635394;1.0203218;-0.027983665;1.0194626;0.0;33796847;346
1;1;1;0.0038356588;-0.01359062;0.008758644;0.012488835;-0.0069600428;-0.00651751;0.006621361;-0.00710392;-9.792401;0.012488835;-0.0069600428;-0.00651751;1.0165968;-0.027314186;1.0163107;0.0;33796855;347
1;1;1;0.0038210144;-0.013725485;0.00878217;-0.0014323095;-0.013477365;0.0024041543;-0.0015115738;0.0027065277;-9.780475;-0.0014323095;-0.013477365;0.0024041543;1.0187216;-0.024697304;1.0231047;0.0;33796867;348
1;1;1;0.003791865;-0.013792149;0.008820828;-0.0028618332;-0.00665134;0.0038911446;0.0010900497;0.002705574;-9.782765;-0.0028618332;-0.00665134;0.0038911446;1.0180407;-0.032244682;1.019948;0.0;33796875;349
1;1;1;0.0037581213;-0.013852482;0.008783158;-0.0034261972;-0.0060473676;-0.003743491;0.008565903;-0.007129669;-9.784866;-0.0034261972;-0.0060473676;-0.003743491;1.0206261;-0.027516365;1.0233727;0.0;33796886;350
1;1;1;0.0036876071;-0.013904186;0.008785818;-0.0070476523;-0.005169397;2.8528902E-4;0.015714645;-0.0022449493;-9.781845;-0.0070476523;-0.005169397;2.8528902E-4;1.0173683;-0.029706001;1.0149336;0.0;33796898;351
1;1;1;0.0037418026;-0.013968135;0.008826534;0.005476373;-0.006379526;0.004095058;0.007908821;-0.0022439957;-9.774973;0.005476373;-0.006379526;0.004095058;1.0180836;-0.028792381;1.021389;0.0;33796906;352
1;1;1;0.0038278736;-0.01405597;0.008818593;0.008595959;-0.008786339;-7.612057E-4;-0.0015134811;-0.009571075;-9.780651;0.008595959;-0.008786339;-7.612057E-4;1.0199804;-0.02538681;1.0206413;0.0;33796917;353
1;1;1;0.003815941;-0.014145206;0.00879438;-0.001227453;-0.008932744;-0.0023867672;0.0129470825;-0.007162094;-9.777169;-0.001227453;-0.008932744;-0.0023867672;1.0222597;-0.024101257;1.0233002;0.0;33796925;354
1;1;1;0.003930697;-0.014304903;0.008732627;0.011387498;-0.015993595;-0.00611285;0.012126923;0.0026273727;-9.764748;0.011387498;-0.015993595;-0.00611285;1.01898;-0.029697418;1.018218;0.0;33796933;355
1;1;1;0.0039212964;-0.013966551;0.008671889;0.0109910555;-0.016933016;-0.006178145;-0.0011825562;0.005173683;-9.785351;0.0109910555;-0.016933016;-0.006178145;1.0229607;-0.021492958;1.0270405;0.0;33796945;356
1;1;1;0.003975991;-0.014068787;0.008749365;0.005412599;-0.010238647;-0.0025631138;0.0045137405;0.0051927567;-9.797302;0.005412599;-0.010238647;-0.0025631138;1.0241919;-0.021772385;1.0223036;0.0;33796957;357
1;1;1;0.0040384247;-0.014098582;0.008673009;0.0061357324;-0.0030100627;-0.0076227193;0.010343552;-0.012072563;-9.774949;0.0061357324;-0.0030100627;-0.0076227193;1.0209522;-0.025128365;1.0266352;0.0;33796964;358
1;1;1;0.0040379167;-0.014238666;0.008726295;2.4764773E-5;-0.013986726;0.0053845607;0.003030777;-0.012052536;-9.775445;2.4764773E-5;-0.013986726;0.0053845607;1.0185347;-0.026227951;1.0205507;0.0;33796976;359
1;1;1;0.0041362946;-0.01434276;0.008802436;0.009946836;-0.0103777805;0.007655989;0.006129265;-0.004667282;-9.784997;0.009946836;-0.0103777805;0.007655989;1.0198336;-0.026625633;1.0251846;0.0;33796984;360
1;1;1;0.0040793438;-0.0144487545;0.008839652;-0.005641378;-0.01058397;0.0037647807;0.0038547516;2.565384E-4;-9.787548;-0.005641378;-0.01058397;0.0037647807;1.0190535;-0.024904251;1.0242577;0.0;33796996;361
1;1;1;0.004083363;-0.014587872;0.008900804;4.9055397E-4;-0.013886603;0.006171342;-0.0063848495;0.01745224;-9.780595;4.9055397E-4;-0.013886603;0.006171342;1.0198622;-0.027275085;1.0249414;0.0;33797007;362
1;1;1;0.0040563117;-0.014716122;0.008924072;-0.0026710941;-0.01281546;0.0023784193;0.005472183;0.007583618;-9.774999;-0.0026710941;-0.01281546;0.0023784193;1.01892;-0.027113914;1.0185251;0.0;33797015;363
1;1;1;0.0040832786;-0.014834568;0.008950857;0.002736371;-0.011833424;0.0027264296;0.003361702;2.374649E-4;-9.78018;0.002736371;-0.011833424;0.0027264296;1.0212793;-0.0257864;1.0253048;0.0;33797027;364
1;1;1;0.004184116;-0.014884803;0.008973239;0.010117019;-0.0050142375;0.0022586558;-0.0010194778;-0.004640579;-9.787949;0.010117019;-0.0050142375;0.0022586558;1.0239639;-0.021766663;1.0225515;0.0;33797035;365
1;1;1;0.0040908195;-0.014548125;0.008931151;0.0048386985;-0.017215408;-0.004342292;-0.0032920837;-0.004627228;-9.79057;0.0048386985;-0.017215408;-0.004342292;1.0238285;-0.018959045;1.0237398;0.0;33797046;366
1;1;1;0.0040676636;-0.014654473;0.008936641;-0.0022446543;-0.010614956;0.0043580974;0.005636215;-0.0046863556;-9.77763;-0.0022446543;-0.010614956;0.0043580974;1.0198793;-0.029342651;1.0123634;0.0;33797054;367
1;1;1;0.004094703;-0.0147657525;0.008985309;0.0027754125;-0.011107713;0.00491191;0.00497818;1.9836426E-4;-9.767735;0.0027754125;-0.011107713;0.00491191;1.0176315;-0.025108337;1.0237541;0.0;33797066;368
1;1;1;0.0041330694;-0.014900704;0.008893344;0.003700265;-0.013532494;-0.009140101;9.241104E-4;2.4414062E-4;-9.780345;0.003700265;-0.013532494;-0.009140101;1.0193014;-0.025344849;1.0238371;0.0;33797078;369
1;1;1;0.004132686;-0.015059661;0.00893656;2.656467E-5;-0.015877547;0.004386948;-0.0063877106;-0.00219059;-9.780876;2.656467E-5;-0.015877547;0.004386948;1.0191088;-0.02644062;1.0212927;0.0;33797085;370
1;1;1;0.004135914;-0.015149953;0.008933937;3.1874434E-4;-0.009030149;-2.2489885E-4;-0.0018405914;0.0076036453;-9.775494;3.1874434E-4;-0.009030149;-2.2489885E-4;1.017725;-0.026405334;1.0228252;0.0;33797097;371
1;1;1;0.004089933;-0.015245687;0.008879658;-0.0046808184;-0.0095955245;-0.0053876583;0.002869606;0.007583618;-9.772707;-0.0046808184;-0.0095955245;-0.0053876583;1.0197344;-0.025378227;1.0211143;0.0;33797105;372
1;1;1;0.00420546;-0.015284954;0.008922982;0.011618877;-0.0039085913;0.004348229;-0.004278183;0.002699852;-9.775729;0.011618877;-0.0039085913;0.004348229;1.0208321;-0.022315979;1.0276299;0.0;33797117;373
1;1;1;0.0041875793;-0.015392493;0.0089099705;-0.0018079326;-0.010759103;-0.0012559574;0.0054712296;-0.0046930313;-9.775174;-0.0018079326;-0.010759103;-0.0012559574;1.0195808;-0.026190758;1.0256634;0.0;33797125;374
1;1;1;0.0041556763;-0.015522354;0.008940519;-0.0031431923;-0.012973038;0.003108763;0.014891624;-0.009643555;-9.7696705;-0.0031431923;-0.012973038;0.003108763;1.0188332;-0.028579712;1.0223799;0.0;33797136;375
1;1;1;0.0040556523;-0.0150767155;0.008905822;0.0021552774;-0.006312995;-0.0036506893;5.931854E-4;-0.014501572;-9.775644;0.0021552774;-0.006312995;-0.0036506893;1.0163584;-0.03133583;1.0224295;0.0;33797148;376
1;1;1;0.004131046;-0.015175414;0.008826204;0.007375108;-0.009914549;-0.01045618;-0.0016765594;-0.002210617;-9.77809;0.007375108;-0.009914549;-0.01045618;1.0203848;-0.026385307;1.0286779;0.0;33797156;377
1;1;1;0.004205407;-0.015200497;0.0087935915;0.0073868283;-0.0025218083;-0.003249714;0.00141716;-0.004647255;-9.787784;0.0073868283;-0.0025218083;-0.003249714;1.0185394;-0.026389122;1.0256062;0.0;33797164;378
1;1;1;0.0042151758;-0.015274478;0.008780659;9.5718435E-4;-0.0074034138;-0.0012622598;0.005800247;2.3078918E-4;-9.780015;9.5718435E-4;-0.0074034138;-0.0012622598;1.018816;-0.031153679;1.0230169;0.0;33797175;379
1;1;1;0.004342497;-0.01541044;0.00878475;0.01273825;-0.013594417;4.6723222E-4;0.013441086;2.2315979E-4;-9.7844305;0.01273825;-0.013594417;4.6723222E-4;1.018117;-0.024665833;1.0253925;0.0;33797183;380
1;1;1;0.0044145337;-0.015509951;0.008801601;0.0072298506;-0.009943514;0.0017282839;0.010016441;-0.007174492;-9.769965;0.0072298506;-0.009943514;0.0017282839;1.017848;-0.0242033;1.0285873;0.0;33797195;381
1;1;1;0.004500794;-0.01565767;0.008840795;0.008686956;-0.014754812;0.003984573;0.002869606;0.007583618;-9.772707;0.008686956;-0.014754812;0.003984573;1.0189333;-0.02703762;1.0260763;0.0;33797207;382
1;1;1;0.004592295;-0.01576702;0.008821446;0.009119604;-0.010943223;-0.0018847388;0.0036907196;-0.002204895;-9.785127;0.009119604;-0.010943223;-0.0018847388;1.0208597;-0.021674156;1.0271883;0.0;33797218;383
1;1;1;0.0046645827;-0.015912486;0.008791542;0.007181619;-0.0145603195;-0.002922303;7.6007843E-4;2.374649E-4;-9.777889;0.007181619;-0.0145603195;-0.002922303;1.0202312;-0.02875328;1.0283947;0.0;33797226;384
1;1;1;0.004639815;-0.015974863;0.008748519;-0.002545226;-0.006257208;-0.004272714;-0.0046072006;2.3174286E-4;-9.770851;-0.002545226;-0.006257208;-0.004272714;1.0213909;-0.025801659;1.0239372;0.0;33797234;385
1;1;1;0.0045739166;-0.01559795;0.008780158;0.0058570243;-0.012045184;0.0030167934;-0.0010166168;0.015002251;-9.787667;0.0058570243;-0.012045184;0.0030167934;1.022006;-0.024711609;1.0265055;0.0;33797246;386
1;1;1;0.00471227;-0.015639808;0.008933669;0.013772953;-0.004203132;-0.0014977988;0.0137729645;0.017424583;-9.789097;0.013772953;-0.004203132;-0.0014977988;1.0224123;-0.021979332;1.0210953;0.0;33797253;387
1;1;1;0.0047447854;-0.015742475;0.00895048;0.003277791;-0.010258695;0.0017294047;0.0027046204;2.117157E-4;-9.770355;0.003277791;-0.010258695;0.0017294047;1.0170441;-0.02944851;1.0188446;0.0;33797265;388
1;1;1;0.0047683944;-0.015823351;0.008901237;0.0022833808;-0.00811106;-0.0048850253;0.010344505;-0.0096178055;-9.774914;0.0022833808;-0.00811106;-0.0048850253;1.0182476;-0.025975227;1.0240021;0.0;33797277;389
1;1;1;0.004824069;-0.015942564;0.008988046;0.0057058153;-0.011879067;0.008737055;0.01604271;-0.002231598;-9.786757;0.0057058153;-0.011879067;0.008737055;1.0182123;-0.02854538;1.0248613;0.0;33797285;390
1;1;1;0.0048553557;-0.016006319;0.008989272;0.003130724;-0.006374441;1.5357867E-4;0.001912117;0.007648468;-9.794976;0.003130724;-0.006374441;1.5357867E-4;1.0178461;-0.02682972;1.0239649;0.0;33797296;391
1;1;1;0.0049192416;-0.016095607;0.008928008;0.0062902775;-0.008958509;-0.006082031;0.0035266876;2.4318695E-4;-9.782636;0.0062902775;-0.008958509;-0.006082031;1.0190182;-0.02991581;1.0177908;0.0;33797304;392
1;1;1;0.0049146987;-0.016148865;0.008875424;-5.388729E-4;-0.005351496;-0.0052308487;-0.0034589767;-0.012000084;-9.78822;-5.388729E-4;-0.005351496;-0.0052308487;1.0189342;-0.02553463;1.0256424;0.0;33797316;393
1;1;1;0.004863112;-0.016226893;0.008834619;-0.005224687;-0.007822759;-0.0040417705;-0.00866127;-0.00954628;-9.783603;-0.005224687;-0.007822759;-0.0040417705;1.0225592;-0.026268005;1.0223932;0.0;33797328;394
1;1;1;0.0048312433;-0.016290918;0.008813527;-0.003221192;-0.006412757;-0.002077786;0.008404732;0.010050774;-9.782165;-0.003221192;-0.006412757;-0.002077786;1.0191717;-0.026664734;1.0203819;0.0;33797335;395
1;1;1;0.0046134098;-0.015833737;0.008741755;-0.003618583;-0.0056041502;-0.007429672;0.0038557053;0.007622719;-9.787443;-0.003618583;-0.0056041502;-0.007429672;1.0191584;-0.030395508;1.0134478;0.0;33797347;396
1;1;1;0.004634039;-0.015913876;0.008734482;0.00196181;-0.0080434475;-0.0056138984;0.0028705597;0.010038376;-9.772672;0.00196181;-0.0080434475;-0.0056138984;1.0211935;-0.024943352;1.023489;0.0;33797355;397
1;1;1;0.004665536;-0.015986057;0.008675025;0.0030546987;-0.00724549;-0.005911593;-0.006058693;2.7656555E-4;-9.785752;0.0030546987;-0.00724549;-0.005911593;1.0165777;-0.031775475;1.0222006;0.0;33797367;398
1;1;1;0.004645007;-0.01606385;0.008722142;-0.0019771971;-0.00775724;0.0047472925;-0.008333206;-0.007077217;-9.78848;-0.0019771971;-0.00775724;0.0047472925;1.0185862;-0.026856422;1.022399;0.0;33797375;399
1;1;1;0.0047630807;-0.01610017;0.008641343;0.011677788;-0.0036694184;-0.008061185;0.008402824;2.2983551E-4;-9.782305;0.011677788;-0.0036694184;-0.008061185;1.018548;-0.031006813;1.0159187;0.0;33797386;400
1;1;1;0.00467814;-0.016213173;0.008629604;-0.0085132755;-0.011305357;-0.0011202635;0.0033607483;-0.009584427;-9.780321;-0.0085132755;-0.011305357;-0.0011202635;1.0192099;-0.027451515;1.0276785;0.0;33797398;401
1;1;1;0.0046704886;-0.016298296;0.008598219;-8.161293E-4;-0.008526755;-0.0030984795;-0.0060596466;-0.009545326;-9.785893;-8.161293E-4;-0.008526755;-0.0030984795;1.020277;-0.027308464;1.022254;0.0;33797406;402
1;1;1;0.00477242;-0.01640653;0.00864285;0.010266151;-0.010802393;0.00451341;0.0014181137;0.005173683;-9.7876425;0.010266151;-0.010802393;0.00451341;1.020256;-0.028409958;1.020174;0.0;33797417;403
1;1;1;0.0048586805;-0.0164902;0.008587578;0.008535026;-0.008393591;-0.0054858625;0.0062942505;0.007616043;-9.787278;0.008535026;-0.008393591;-0.0054858625;1.0185585;-0.031892776;1.0133877;0.0;33797425;404
1;1;1;0.0048392164;-0.016505767;0.008544991;-0.0020166822;-0.0015770762;-0.004250712;-0.0016765594;-0.0046663284;-9.778125;-0.0020166822;-0.0015770762;-0.004250712;1.0202093;-0.02279377;1.022337;0.0;33797433;405
1;1;1;0.004622376;-0.016112385;0.008558491;-0.0048039383;-0.009870685;0.0011156531;-0.0086603165;2.7561188E-4;-9.783462;-0.0048039383;-0.009870685;0.0011156531;1.0195189;-0.030740738;1.0219193;0.0;33797449;406
1;1;1;0.004727416;-0.016209438;0.008694475;0.010412073;-0.009734485;-0.0031453182;-0.00866127;-0.0070905685;-9.783567;0.010412073;-0.009734485;-0.0031453182;1.0180445;-0.027522087;1.0189333;0.0;33797457;407
1;1;1;0.004765051;-0.016311152;0.008741752;0.0038404006;-0.010148774;0.0047754366;0.008401871;-0.007136345;-9.782411;0.0038404006;-0.010148774;0.0047754366;1.0203028;-0.025406837;1.0190916;0.0;33797464;408
1;1;1;0.004859787;-0.016409425;0.008658396;0.009337235;-0.009866903;-0.008287109;0.012782097;-0.00716877;-9.7747135;0.009337235;-0.009866903;-0.008287109;1.0189619;-0.02489376;1.0252018;0.0;33797476;409
1;1;1;0.0049554473;-0.016462205;0.008707049;0.009645975;-0.0052537387;0.004890573;-0.006389618;-0.014468193;-9.781052;0.009645975;-0.0052537387;0.004890573;1.0220366;-0.026672363;1.0237322;0.0;33797484;410
1;1;1;0.005018628;-0.016512534;0.008722872;0.006344211;-0.005024824;0.001606889;0.008236885;-0.007142067;-9.779955;0.006344211;-0.005024824;0.001606889;1.0204563;-0.024944305;1.0223093;0.0;33797496;411
1;1;1;0.0050513;-0.01658516;0.008653677;0.0031526375;-0.0072972137;-0.00688175;-6.8950653E-4;0.002737999;-9.792755;0.0031526375;-0.0072972137;-0.00688175;1.0179071;-0.03333378;1.0190401;0.0;33797507;412
1;1;1;0.005079426;-0.01663615;0.008601021;0.0027250135;-0.0051254714;-0.005238975;-0.0080013275;0.010122299;-9.793146;0.0027250135;-0.0051254714;-0.005238975;1.0207729;-0.028404236;1.021574;0.0;33797515;413
1;1;1;0.005028069;-0.016740771;0.0085948;-0.005146229;-0.010464842;-5.691658E-4;-0.0039491653;0.0027132034;-9.780641;-0.005146229;-0.010464842;-5.691658E-4;1.01787;-0.02838993;1.0186777;0.0;33797527;414
1;1;1;0.0050352816;-0.01679697;0.008583103;7.0152746E-4;-0.005625764;-0.0011411001;-0.006058693;2.7656555E-4;-9.785752;7.0152746E-4;-0.005625764;-0.0011411001;1.0220404;-0.024982452;1.0207882;0.0;33797535;415
1;1;1;0.0048070126;-0.016435394;0.008599966;-0.009721551;-0.011730765;0.0015146887;0.007580757;-0.004712105;-9.770095;-0.009721551;-0.011730765;0.0015146887;1.0207605;-0.027162552;1.0163383;0.0;33797546;416
1;1;1;0.0047426694;-0.01656749;0.008665911;-0.006583807;-0.013253723;-0.007013936;-6.0081482E-5;0.010025978;-9.765469;-0.006583807;-0.013253723;-0.007013936;1.0164671;-0.03226185;1.016017;0.0;33797554;417
1;1;1;0.004657477;-0.016660258;0.008657198;-0.008533603;-0.009280834;-8.274139E-4;-0.0010204315;-0.009552002;-9.788019;-0.008533603;-0.009280834;-8.274139E-4;1.0193624;-0.028194427;1.0183039;0.0;33797566;418
1;1;1;0.0046736533;-0.016733667;0.008631535;0.0015747366;-0.007352492;-0.0025315627;0.0038547516;-0.0021982193;-9.787583;0.0015747366;-0.007352492;-0.0025315627;1.0185204;-0.026821136;1.0258274;0.0;33797578;419
1;1;1;0.004662137;-0.01686224;0.008638974;-0.001139312;-0.012853497;8.040694E-4;-0.005894661;-0.0021715164;-9.788244;-0.001139312;-0.012853497;8.040694E-4;1.0182972;-0.034193993;1.0195074;0.0;33797585;420
1;1;1;0.0046832594;-0.017010331;0.008615188;0.0020721415;-0.01481977;-0.002309493;0.0012512207;-0.014475822;-9.785467;0.0020721415;-0.01481977;-0.002309493;1.0180988;-0.028369904;1.0209732;0.0;33797597;421
1;1;1;0.0047086137;-0.017086752;0.008624402;0.0025510942;-0.0076370807;9.5717685E-4;-6.904602E-4;-0.00217247;-9.792826;0.0025510942;-0.0076370807;9.5717685E-4;1.0195827;-0.026219368;1.0229254;0.0;33797605;422
1;1;1;0.0047636623;-0.017224083;0.008571113;0.0054135825;-0.013758082;-0.0052629816;0.004020691;0.0076293945;-9.789899;0.0054135825;-0.013758082;-0.0052629816;1.0177698;-0.026591301;1.0221376;0.0;33797617;423
1;1;1;0.004806562;-0.017381903;0.008494069;0.004156961;-0.015818426;-0.0076277363;-0.005730629;-0.009531975;-9.790806;0.004156961;-0.015818426;-0.0076277363;1.0195894;-0.027118683;1.0153599;0.0;33797625;424
1;1;1;0.0049053202;-0.017554954;0.008458321;0.009813072;-0.017321968;-0.0034901693;-0.0015115738;0.0076169968;-9.780405;0.009813072;-0.017321968;-0.0034901693;1.0191936;-0.028162003;1.0178337;0.0;33797636;425
1;1;1;0.0047084875;-0.017095944;0.008430661;-0.0055800136;-0.0054021874;-0.0030065838;-0.0013465881;0.0051670074;-9.782895;-0.0055800136;-0.0054021874;-0.0030065838;1.01865;-0.0264225;1.0189867;0.0;33797648;426
1;1;1;0.0046920953;-0.017225338;0.008557155;-0.0017709576;-0.012979213;-0.0051306672;-0.0084962845;2.822876E-4;-9.785917;-0.0017709576;-0.012979213;-0.0051306672;1.0179672;-0.02854824;1.020052;0.0;33797656;427
1;1;1;0.004667128;-0.017358888;0.00844384;-0.0026927183;-0.01340776;-0.011266807;-0.015808105;0.005212784;-9.786343;-0.0026927183;-0.01340776;-0.011266807;1.0195951;-0.02859211;1.0180779;0.0;33797667;428
1;1;1;0.0047138315;-0.01747888;0.008448434;0.0046785264;-0.011996829;5.155682E-4;-0.0058937073;0.0027389526;-9.788174;0.0046785264;-0.011996829;5.155682E-4;1.0182047;-0.030730247;1.0175095;0.0;33797675;429
1;1;1;0.0047666;-0.017564638;0.00839431;0.005181975;-0.008600824;-0.0053708716;0.0036907196;-0.0046606064;-9.785162;0.005181975;-0.008600824;-0.0053708716;1.0183029;-0.030693054;1.0214024;0.0;33797683;430
1;1;1;0.0047496604;-0.017648842;0.008398041;-0.0016876031;-0.008418403;4.1337422E-4;-0.0063877106;-0.00219059;-9.780876;-0.0016876031;-0.008418403;4.1337422E-4;1.0204239;-0.027691841;1.0231657;0.0;33797695;431
1;1;1;0.004754971;-0.017754225;0.00839988;5.341223E-4;-0.010536913;2.336265E-4;0.005472183;0.005127907;-9.775033;5.341223E-4;-0.010536913;2.336265E-4;1.0176382;-0.026597977;1.0212135;0.0;33797707;432
1;1;1;0.0047648386;-0.017838625;0.008334636;8.7057863E-4;-0.008470784;-0.0064830077;0.003528595;0.010064125;-9.7824955;8.7057863E-4;-0.008470784;-0.0064830077;1.0188551;-0.026205063;1.019001;0.0;33797718;433
1;1;1;0.0047559324;-0.017944457;0.008272505;-0.001001345;-0.010612552;-0.0061615;9.250641E-4;0.002699852;-9.78031;-0.001001345;-0.010612552;-0.0061615;1.0241785;-0.01910305;1.0269547;0.0;33797726;434
1;1;1;0.0047520567;-0.018037844;0.008264921;-4.012108E-4;-0.009341945;-7.140763E-4;0.012619019;-0.0022640228;-9.772186;-4.012108E-4;-0.009341945;-7.140763E-4;1.0236444;-0.022810936;1.0213671;0.0;33797738;435
1;1;1;0.004674972;-0.01769051;0.008235281;0.007057168;-0.013935927;-0.0031563009;0.001253128;-0.0046539307;-9.785327;0.007057168;-0.013935927;-0.0031563009;1.0210266;-0.026679039;1.0181885;0.0;33797746;436
1;1;1;0.0046615126;-0.017751643;0.00837496;-0.0013839868;-0.0061235707;-1.8920365E-4;0.008731842;0.0026988983;-9.787182;-0.0013839868;-0.0061235707;-1.8920365E-4;1.0141602;-0.034895897;1.0037336;0.0;33797753;437
1;1;1;0.0047283503;-0.01780885;0.008386289;0.006703818;-0.0057151923;0.0011595491;0.012619019;-0.0022640228;-9.772186;0.006703818;-0.0057151923;0.0011595491;1.020071;-0.028554916;1.0224447;0.0;33797765;438
1;1;1;0.0047762673;-0.01792606;0.0083963685;0.004809861;-0.011715537;0.0010637918;0.005142212;-0.0071611404;-9.770296;0.004809861;-0.011715537;0.0010637918;1.0162725;-0.030219078;1.0231323;0.0;33797777;439
1;1;1;0.004769728;-0.01806988;0.008420928;-6.096656E-4;-0.014370072;0.002524199;-0.0057287216;0.0027456284;-9.790629;-6.096656E-4;-0.014370072;0.002524199;1.0174065;-0.030026436;1.0220537;0.0;33797789;440
1;1;1;0.0047380286;-0.018121632;0.008437161;-0.0031406078;-0.0051669115;0.0016475733;-0.0011825562;0.0027189255;-9.785386;-0.0031406078;-0.0051669115;0.0016475733;1.0159111;-0.03118229;1.0123539;0.0;33797796;441
1;1;1;0.0048323194;-0.018184977;0.00839177;0.009346574;-0.006355864;-0.004508257;-0.006716728;2.5081635E-4;-9.775929;0.009346574;-0.006355864;-0.004508257;1.0190306;-0.02856636;1.0198765;0.0;33797804;442
1;1;1;0.0048259175;-0.018180044;0.008436336;-5.589782E-4;5.149247E-4;0.004453742;-0.0062236786;-0.0070962906;-9.783402;-5.589782E-4;5.149247E-4;0.004453742;1.0158072;-0.03194809;1.021471;0.0;33797816;443
1;1;1;0.0048582717;-0.018291498;0.008416089;0.003198438;-0.011154865;-0.001970255;0.010673523;-0.0071487427;-9.77979;0.003198438;-0.011154865;-0.001970255;1.0168848;-0.027243614;1.0202513;0.0;33797824;444
1;1;1;0.004917021;-0.018358756;0.008349478;0.0057530487;-0.006758106;-0.0066272616;0.003361702;2.374649E-4;-9.78018;0.0057530487;-0.006758106;-0.0066272616;1.012126;-0.03369999;1.0130186;0.0;33797839;445
1;1;1;0.0047454275;-0.017923428;0.008294253;-0.0040195934;-0.010790635;-0.0056988993;-0.0060567856;0.010097504;-9.785612;-0.0040195934;-0.010790635;-0.0056988993;1.015234;-0.02829361;1.0201464;0.0;33797847;446
1;1;1;0.004813966;-0.018032515;0.00850788;0.0068071024;-0.010918188;4.518419E-4;-0.0060596466;-0.007089615;-9.785858;0.0068071024;-0.010918188;4.518419E-4;1.0163383;-0.025928497;1.0216131;0.0;33797855;447
1;1;1;0.004889335;-0.018138753;0.008385539;0.0073154895;-0.010683146;-0.012180417;-0.003950119;-0.004652977;-9.780746;0.0073154895;-0.010683146;-0.012180417;1.016305;-0.028982162;1.0174427;0.0;33797867;448
1;1;1;0.004946194;-0.018194698;0.008320317;0.0055674873;-0.0056261714;-0.0064934487;0.0031995773;0.010051727;-9.777584;0.0055674873;-0.0056261714;-0.0064934487;1.0159378;-0.035240173;1.0152464;0.0;33797875;449
1;1;1;0.004868731;-0.018265381;0.008313044;-0.0077595594;-0.007071662;-6.922621E-4;0.0038557053;0.0051670074;-9.7874775;-0.0077595594;-0.007071662;-6.922621E-4;1.018301;-0.028380394;1.015955;0.0;33797886;450
1;1;1;0.0049174093;-0.018396026;0.008394214;0.005016508;-0.013024605;0.008179782;-0.0010194778;2.6988983E-4;-9.787878;0.005016508;-0.013024605;0.008179782;1.0163345;-0.028316498;1.019517;0.0;33797898;451
1;1;1;0.004887472;-0.01845557;0.008376041;-0.0030272885;-0.00596292;-0.0017875321;0.0031967163;-0.0071353912;-9.77783;-0.0030272885;-0.00596292;-0.0017875321;1.01754;-0.03329277;1.0183353;0.0;33797906;452
1;1;1;0.004828578;-0.01857459;0.008325061;-0.0059836856;-0.011926163;-0.0050395583;-0.0010194778;-0.0021848679;-9.787913;-0.0059836856;-0.011926163;-0.0050395583;1.0122089;-0.0339489;1.0094967;0.0;33797917;453
1;1;1;0.0048893522;-0.018727288;0.008242836;0.0059235883;-0.0153096635;-0.008146884;-1.9741058E-4;-0.004609108;-9.800229;0.0059235883;-0.0153096635;-0.008146884;1.0177116;-0.02558899;1.0149708;0.0;33797925;454
1;1;1;0.0049223485;-0.018792342;0.008201886;0.0032228506;-0.0065252455;-0.0040620924;-0.012711525;0.0052318573;-9.796002;0.0032228506;-0.0065252455;-0.0040620924;1.0109835;-0.03592491;1.0043612;0.0;33797937;455
1;1;1;0.0049135075;-0.018337337;0.008191552;0.0127039375;-0.005430494;-0.00125191;0.0010900497;0.007616043;-9.782696;0.0127039375;-0.005430494;-0.00125191;1.0143852;-0.02881527;1.0101624;0.0;33797945;456
1;1;1;0.0049262373;-0.018358748;0.008341691;0.0012547182;-0.0021439781;0.0010005382;0.008569717;0.019879341;-9.784479;0.0012547182;-0.0021439781;0.0010005382;1.0142736;-0.0342474;1.0047951;0.0;33797957;457
1;1;1;0.0049345247;-0.01854161;0.008384393;9.0750447E-4;-0.018264543;0.0043593827;-0.0057268143;0.015022278;-9.790454;9.0750447E-4;-0.018264543;0.0043593827;1.0185175;-0.025520325;1.0230169;0.0;33797968;458
1;1;1;0.0049904417;-0.018716386;0.008305937;0.005445427;-0.017516281;-0.0077571874;-0.0011825562;0.005173683;-9.785351;0.005445427;-0.017516281;-0.0077571874;1.0181999;-0.027030945;1.0220547;0.0;33797976;459
1;1;1;0.0050049867;-0.018799251;0.008236764;0.0013247195;-0.0083205635;-0.00687469;0.0036907196;-0.002204895;-9.785127;0.0013247195;-0.0083205635;-0.00687469;1.0194368;-0.028544426;1.0225458;0.0;33797988;460
1;1;1;0.0050086803;-0.018836694;0.008252338;3.9863616E-4;-0.0037365104;0.0015757688;-0.0062236786;-0.009552002;-9.783438;3.9863616E-4;-0.0037365104;0.0015757688;1.0177488;-0.030532837;1.0153341;0.0;33797996;461
1;1;1;0.0050277184;-0.018920394;0.008266862;0.0019312727;-0.008362534;0.001494019;-0.00477314;-0.009596825;-9.768537;0.0019312727;-0.008362534;0.001494019;1.0188875;-0.02924347;1.0165586;0.0;33798003;462
1;1;1;0.004960362;-0.018963614;0.008258758;-0.006750893;-0.0043258183;-7.884132E-4;-0.0015115738;0.0027065277;-9.780475;-0.006750893;-0.0043258183;-7.884132E-4;1.0126753;-0.03222084;1.0111504;0.0;33798019;463
1;1;1;0.004910497;-0.019070446;0.008299258;-0.0049094753;-0.0106629245;0.0041017593;0.003528595;0.012519836;-9.78246;-0.0049094753;-0.0106629245;0.0041017593;1.0173388;-0.025776863;1.0170069;0.0;33798027;464
1;1;1;0.004951191;-0.01918616;0.008267187;0.004007943;-0.011587093;-0.0031493732;0.0010890961;-0.002204895;-9.782836;0.004007943;-0.011587093;-0.0031493732;1.0173244;-0.028834343;1.012598;0.0;33798039;465
1;1;1;0.004689161;-0.018724717;0.008348179;-0.0074890424;-0.007882161;0.00780512;-0.011425018;0.0027256012;-9.77868;-0.0074890424;-0.007882161;0.00780512;1.0155945;-0.026812553;1.0180368;0.0;33798046;466
1;1;1;0.004712407;-0.018816754;0.008535235;0.0022803072;-0.0092158085;2.608569E-4;-0.0036211014;-0.004640579;-9.785658;0.0022803072;-0.0092158085;2.608569E-4;1.0176611;-0.024724007;1.015439;0.0;33798054;467
1;1;1;0.0046480545;-0.018960875;0.008587923;-0.006335836;-0.014386863;0.0053355987;0.020093918;-0.007188797;-9.774218;-0.006335836;-0.014386863;0.0053355987;1.017539;-0.031600952;1.0155334;0.0;33798066;468
1;1;1;0.0047219256;-0.019035151;0.008570505;0.007354025;-0.007435671;-0.0017067937;-0.0016765594;-0.0046663284;-9.778125;0.007354025;-0.007435671;-0.0017067937;1.0158911;-0.02793312;1.0145998;0.0;33798078;469
1;1;1;0.0047186487;-0.019030774;0.008522123;-4.1977558E-4;4.148318E-4;-0.004839249;-0.0044431686;2.374649E-4;-9.773308;-4.1977558E-4;4.148318E-4;-0.004839249;1.0169401;-0.029452324;1.0148573;0.0;33798085;470
1;1;1;0.0047272188;-0.019077199;0.008469147;7.564225E-4;-0.0046673417;-0.0052741338;0.018942833;-0.012144089;-9.757095;7.564225E-4;-0.0046673417;-0.0052741338;1.0180559;-0.028992653;1.0190411;0.0;33798097;471
1;1;1;0.004629151;-0.019202905;0.008454347;-0.009835165;-0.012577492;-0.0014209785;0.006128311;-0.009578705;-9.785068;-0.009835165;-0.012577492;-0.0014209785;1.0172968;-0.03181362;1.0159712;0.0;33798105;472
1;1;1;0.0046178354;-0.019271607;0.008462703;-0.0011154949;-0.006866066;8.671496E-4;-0.010108948;0.010142326;-9.7982235;-0.0011154949;-0.006866066;8.671496E-4;1.0160894;-0.02919197;1.0175619;0.0;33798117;473
1;1;1;0.004548245;-0.019326637;0.008480043;-0.006925518;-0.0054950337;0.0017589587;-0.023612976;0.0052137375;-9.779471;-0.006925518;-0.0054950337;0.0017589587;1.0153503;-0.02836132;1.0136538;0.0;33798125;474
1;1;1;0.00449125;-0.01945106;0.008426533;-0.0058032977;-0.012466275;-0.0052936915;0.003827095;-0.0023012161;-9.750577;-0.0058032977;-0.012466275;-0.0052936915;1.0132132;-0.032889366;1.0097933;0.0;33798136;475
1;1;1;0.004397646;-0.018978313;0.008352953;0.0017496204;-0.0072753904;-0.007574403;0.024474144;-0.026864052;-9.7668;0.0017496204;-0.0072753904;-0.007574403;1.0163488;-0.026032448;1.0112362;0.0;33798148;476
1;1;1;0.0042885332;-0.019073518;0.008444615;-0.010943224;-0.00953017;-3.2572172E-4;-0.007842064;-0.029156685;-9.7961645;-0.010943224;-0.00953017;-3.2572172E-4;1.0169353;-0.03054905;1.0125465;0.0;33798156;477
1;1;1;0.0043468396;-0.019203264;0.008451969;0.005844583;-0.0129712;7.9101213E-4;-0.003293991;-0.011993408;-9.790676;0.005844583;-0.0129712;7.9101213E-4;1.0151873;-0.027480125;1.0154886;0.0;33798167;478
1;1;1;0.0044382815;-0.019291611;0.008435628;0.009112815;-0.00884132;-0.0015950437;0.013441086;-0.0046873093;-9.784501;0.009112815;-0.00884132;-0.0015950437;1.0155134;-0.035471916;1.0128403;0.0;33798175;479
1;1;1;0.004506158;-0.019400079;0.008434204;0.006784915;-0.010847181;-9.391039E-5;0.0134420395;0.0026788712;-9.784395;0.006784915;-0.010847181;-9.391039E-5;1.018733;-0.031636238;1.0137682;0.0;33798187;480
1;1;1;0.004622293;-0.019552305;0.008421777;0.011589344;-0.015228147;-0.0011727596;-0.002005577;2.3078918E-4;-9.773142;0.011589344;-0.015228147;-0.0011727596;1.0150213;-0.032260895;1.0105867;0.0;33798195;481
1;1;1;0.0045653465;-0.01961058;0.008397952;-0.0057414966;-0.0058376193;-0.002355046;-0.0062236786;-0.0070962906;-9.783402;-0.0057414966;-0.0058376193;-0.002355046;1.0171356;-0.0285635;1.0173979;0.0;33798207;482
1;1;1;0.004558881;-0.019704862;0.008360179;-7.2053395E-4;-0.00944527;-0.0037337851;-6.914139E-4;-0.009539604;-9.792932;-7.2053395E-4;-0.00944527;-0.0037337851;1.0159311;-0.026410103;1.0162354;0.0;33798218;483
1;1;1;0.004541711;-0.019783325;0.008419816;-0.001599177;-0.007819185;0.005998152;0.005965233;-0.0022182465;-9.782506;-0.001599177;-0.007819185;0.005998152;1.0176802;-0.029827118;1.0210571;0.0;33798226;484
1;1;1;0.0045523834;-0.019931352;0.008381758;9.916032E-4;-0.014819543;-0.003737603;-0.018247604;-0.009512901;-9.786719;9.916032E-4;-0.014819543;-0.003737603;1.0171099;-0.026392937;1.0197277;0.0;33798238;485
1;1;1;0.004529954;-0.019434646;0.008381401;0.0030384047;-0.007674437;-1.6002067E-4;-0.015316963;-0.009500504;-9.793923;0.0030384047;-0.007674437;-1.6002067E-4;1.0146236;-0.030276299;1.0149517;0.0;33798246;486
1;1;1;0.0045661144;-0.019511104;0.008503993;0.0035606592;-0.007659848;-9.863892E-4;0.0035266876;-0.0022115707;-9.782671;0.0035606592;-0.007659848;-9.863892E-4;1.0156975;-0.031180382;1.0122452;0.0;33798257;487
1;1;1;0.004645885;-0.01951735;0.008501111;0.007971523;-6.255527E-4;-2.8509978E-4;-0.0016765594;-0.002210617;-9.77809;0.007971523;-6.255527E-4;-2.8509978E-4;1.014615;-0.03480625;1.0132618;0.0;33798265;488
1;1;1;0.004605096;-0.01957884;0.008479427;-0.0041213823;-0.006159263;-0.0021395616;-0.0062236786;-0.009552002;-9.783438;-0.0041213823;-0.006159263;-0.0021395616;1.0153704;-0.03438282;1.014226;0.0;33798277;489
1;1;1;0.0046151867;-0.019722333;0.008510672;0.0010703943;-0.014334672;0.0031902501;-8.535385E-4;0.0051870346;-9.790263;0.0010703943;-0.014334672;0.0031902501;1.0145998;-0.033971786;1.0107632;0.0;33798289;490
1;1;1;0.0045919693;-0.019841878;0.008571772;-0.0022009402;-0.011926204;0.006164036;0.0064582825;-0.0046539307;-9.789909;-0.0022009402;-0.011926204;0.006164036;1.0154543;-0.03141117;1.010169;0.0;33798296;491
1;1;1;0.004639999;-0.019923689;0.008527653;0.004715244;-0.008201279;-0.0043733674;0.028859138;-0.004796982;-9.758784;0.004715244;-0.008201279;-0.0043733674;1.01721;-0.033086777;1.0170841;0.0;33798308;492
1;1;1;0.0046594758;-0.02001481;0.008517588;0.0019274305;-0.009116307;-9.640255E-4;-0.0013465881;0.0027122498;-9.78293;0.0019274305;-0.009116307;-9.640255E-4;1.0147419;-0.029673576;1.0108519;0.0;33798316;493
1;1;1;0.004645121;-0.020116867;0.0085595865;-0.0013512002;-0.01018621;0.0042463294;-0.010602951;0.0027580261;-9.790959;-0.0013512002;-0.01018621;0.0042463294;1.0153427;-0.028523445;1.0186777;0.0;33798328;494
1;1;1;0.0046795467;-0.020290209;0.008583202;0.0034899306;-0.017322943;0.0024417103;0.008072853;-0.0071487427;-9.777499;0.0034899306;-0.017322943;0.0024417103;1.0195961;-0.024087906;1.0171566;0.0;33798335;495
1;1;1;0.0045673833;-0.019793464;0.008626078;4.813858E-4;-0.0059959525;0.004075097;0.0012540817;0.0027122498;-9.785221;4.813858E-4;-0.0059959525;0.004075097;1.0165806;-0.030313492;1.0141363;0.0;33798347;496
1;1;1;0.0046104523;-0.01989091;0.008808487;0.004238367;-0.009760231;-8.110697E-4;-0.0058918;0.017471313;-9.787963;0.004238367;-0.009760231;-8.110697E-4;1.0163822;-0.028110504;1.0187397;0.0;33798359;497
1;1;1;0.004621986;-0.020016758;0.008840697;0.0012174771;-0.012569688;0.0032785875;0.0056352615;-0.009597778;-9.7777;0.0012174771;-0.012569688;0.0032785875;1.017314;-0.030093193;1.0153198;0.0;33798367;498
1;1;1;0.0046617724;-0.020024125;0.0087975655;0.0038923346;-7.566066E-4;-0.004308786;-0.0081682205;-0.009526253;-9.790971;0.0038923346;-7.566066E-4;-0.004308786;1.013176;-0.031736374;1.0175858;0.0;33798375;499
1;1;1;0.004719331;-0.020099768;0.008782743;0.0057261805;-0.00757139;-0.0014464378;0.0036916733;0.002705574;-9.785056;0.0057261805;-0.00757139;-0.0014464378;1.011879;-0.038851738;1.014183;0.0;33798386;500
1;1;1;0.004638806;-0.020178793;0.008803817;-0.008009969;-0.007892374;0.0021440699;-0.0084962845;2.822876E-4;-9.785917;-0.008009969;-0.007892374;0.0021440699;1.0150595;-0.03242874;1.0151577;0.0;33798398;501
1;1;1;0.0046914113;-0.020291949;0.008747757;0.005146913;-0.011341777;-0.0055521424;-0.01093483;-0.0144433975;-9.786293;0.005146913;-0.011341777;-0.0055521424;1.0142097;-0.035448074;1.0132275;0.0;33798406;502
1;1;1;0.004719278;-0.020388862;0.008748592;0.0027884645;-0.009690322;1.2911859E-4;-0.0046072006;-0.004678726;-9.770922;0.0027884645;-0.009690322;1.2911859E-4;1.0177946;-0.027215958;1.0243206;0.0;33798417;503
1;1;1;0.004779921;-0.020540303;0.008736223;0.0060390616;-0.015149893;-0.0011645915;0.005803108;0.017418861;-9.779769;0.0060390616;-0.015149893;-0.0011645915;1.0193977;-0.023176193;1.0219593;0.0;33798425;504
1;1;1;0.004691331;-0.020573726;0.008748706;-0.0088331085;-0.0033359854;0.0012640922;0.019931793;0.002626419;-9.77162;-0.0088331085;-0.0033359854;0.0012640922;1.0191059;-0.024853706;1.0257978;0.0;33798437;505
1;1;1;0.0046018395;-0.020074118;0.008741152;0.005408837;-0.008547238;-0.0010152931;0.0145635605;-0.002289772;-9.764653;0.005408837;-0.008547238;-0.0010152931;1.0143461;-0.028114319;1.0154333;0.0;33798445;506
1;1;1;0.004600005;-0.020210288;0.008854636;-2.5209022E-4;-0.013633819;-0.0016014411;0.008073807;-0.0046930313;-9.777464;-2.5209022E-4;-0.013633819;-0.0016014411;1.0179615;-0.024662971;1.0218563;0.0;33798457;507
1;1;1;0.0046393657;-0.020301085;0.008870796;0.003968728;-0.009071788;0.0016576465;1.0108948E-4;-0.009610176;-9.768206;0.003968728;-0.009071788;0.0016576465;1.0189075;-0.021605492;1.0276842;0.0;33798468;508
1;1;1;0.0046543363;-0.020437043;0.008926986;0.0016116035;-0.013569306;0.0056807953;0.008236885;-0.007142067;-9.779955;0.0016116035;-0.013569306;0.0056807953;1.0198975;-0.021586418;1.0309362;0.0;33798476;509
1;1;1;0.0047154245;-0.020478679;0.00887509;0.0060027693;-0.0041877036;-0.0051687625;-0.0062217712;0.0076360703;-9.783192;0.0060027693;-0.0041877036;-0.0051687625;1.0169201;-0.026146889;1.0220051;0.0;33798488;510
1;1;1;0.004699181;-0.020574536;0.008855048;-0.0016655182;-0.009594793;-0.0019587085;-0.0044431686;-0.004673004;-9.773378;-0.0016655182;-0.009594793;-0.0019587085;1.0182495;-0.023547173;1.0257788;0.0;33798496;511
1;1;1;0.004751553;-0.020700084;0.008791507;0.0051061795;-0.01258477;-0.006293134;0.007086754;-0.0022764206;-9.7626915;0.0051061795;-0.01258477;-0.006293134;1.0172834;-0.02956009;1.0258455;0.0;33798507;512
1;1;1;0.0048219697;-0.02081331;0.008840634;0.007143845;-0.011298689;0.00496553;0.010182381;0.0051078796;-9.772245;0.007143845;-0.011298689;0.00496553;1.0181875;-0.022039413;1.0237522;0.0;33798515;513
1;1;1;0.0049430174;-0.020923387;0.008823002;0.01206759;-0.011016367;-0.001709221;0.009061813;0.010076523;-9.791989;0.01206759;-0.011016367;-0.001709221;1.0148373;-0.029632568;1.0122299;0.0;33798527;514
1;1;1;0.005016991;-0.021029852;0.00880155;0.0073524085;-0.010656757;-0.002091905;-0.0016784668;-0.012032509;-9.778231;0.0073524085;-0.010656757;-0.002091905;1.0196304;-0.017704964;1.0284824;0.0;33798539;515
1;1;1;0.004913895;-0.020487731;0.008769027;0.0017912912;-0.00878305;-0.003478416;-0.0039491653;0.005167961;-9.780605;0.0017912912;-0.00878305;-0.003478416;1.0184011;-0.025076866;1.0216475;0.0;33798546;516
1;1;1;0.0049048653;-0.020576451;0.008831051;-9.0035715E-4;-0.008871066;8.5660425E-4;0.010511398;0.0075769424;-9.777123;-9.0035715E-4;-0.008871066;8.5660425E-4;1.0183153;-0.025465012;1.0252914;0.0;33798558;517
1;1;1;0.0048307446;-0.020672182;0.008785917;-0.0075053195;-0.009595118;-0.0044659367;7.6007843E-4;2.374649E-4;-9.777889;-0.0075053195;-0.009595118;-0.0044659367;1.020196;-0.02618885;1.0203476;0.0;33798566;518
1;1;1;0.0048821946;-0.020792764;0.008817917;0.0052110716;-0.012042544;0.0032580418;-0.0011844635;-0.0071029663;-9.785527;0.0052110716;-0.012042544;0.0032580418;1.0180407;-0.027441025;1.0213518;0.0;33798574;519
1;1;1;0.0049729836;-0.020928737;0.008822878;0.009089298;-0.013594579;5.6292064E-4;0.005472183;0.002673149;-9.775068;0.009089298;-0.013594579;5.6292064E-4;1.0185413;-0.028071404;1.0229702;0.0;33798589;520
1;1;1;0.0049752486;-0.021039752;0.008813502;2.0687532E-4;-0.011105822;-8.819462E-4;0.005637169;0.0051345825;-9.777489;2.0687532E-4;-0.011105822;-8.819462E-4;1.0180607;-0.029755592;1.0265675;0.0;33798597;521
1;1;1;0.004956766;-0.021120049;0.008751912;-0.00197813;-0.008059721;-0.0061176885;-0.006058693;2.7656555E-4;-9.785752;-0.00197813;-0.008059721;-0.0061176885;1.0173712;-0.028064728;1.0219917;0.0;33798605;522
1;1;1;0.004871356;-0.021213772;0.008750997;-0.008542894;-0.009372536;-4.566225E-5;-0.0018415451;-0.0022172928;-9.775634;-0.008542894;-0.009372536;-4.566225E-5;1.0205793;-0.024396896;1.0281744;0.0;33798617;523
1;1;1;0.0050050463;-0.021359049;0.0086482875;0.013150331;-0.014578356;-0.010196519;0.003358841;-0.019406319;-9.780461;0.013150331;-0.014578356;-0.010196519;1.0183287;-0.025654793;1.0278006;0.0;33798625;524
1;1;1;0.0050333496;-0.021385573;0.008647734;0.0028291442;-0.002652597;-4.1862833E-5;0.007741928;-0.019439697;-9.772762;0.0028291442;-0.002652597;-4.1862833E-5;1.0181522;-0.02590084;1.0248184;0.0;33798636;525
1;1;1;0.004925723;-0.020869877;0.00866242;0.0046057785;-0.010794116;0.001195304;0.010017395;-0.0047187805;-9.76993;0.0046057785;-0.010794116;0.001195304;1.0151663;-0.03169918;1.0213528;0.0;33798648;526
1;1;1;0.0049698246;-0.02089004;0.008686892;0.0043184534;-0.0020380223;-0.0036045178;-0.0054016113;-0.0070638657;-9.795683;0.0043184534;-0.0020380223;-0.0036045178;1.0156698;-0.028256416;1.0223541;0.0;33798656;527
1;1;1;0.00501632;-0.021019587;0.008675142;0.004624717;-0.012960434;-0.0011099544;0.00141716;2.632141E-4;-9.787713;0.004624717;-0.012960434;-0.0011099544;1.0164442;-0.029815674;1.0182552;0.0;33798667;528
1;1;1;0.0051151803;-0.021099964;0.008676097;0.00988813;-0.008037116;1.35843E-4;0.007744789;-0.0022506714;-9.772516;0.00988813;-0.008037116;1.35843E-4;1.0193748;-0.02503109;1.0276442;0.0;33798675;529
1;1;1;0.0052223024;-0.021209374;0.008644152;0.0106446855;-0.01095732;-0.0031369652;-0.013041496;-0.0021457672;-9.791196;0.0106446855;-0.01095732;-0.0031369652;1.0193911;-0.028162003;1.0152397;0.0;33798687;530
1;1;1;0.005311961;-0.021283332;0.008579841;0.008829053;-0.0074293213;-0.0063908715;-0.0011854172;-0.012013435;-9.785598;0.008829053;-0.0074293213;-0.0063908715;1.0214996;-0.027427673;1.027709;0.0;33798695;531
1;1;1;0.005343752;-0.02136427;0.008501727;0.0030126425;-0.00813517;-0.0077663297;0.0031957626;-0.01204586;-9.777901;0.0030126425;-0.00813517;-0.0077663297;1.0184345;-0.027469635;1.0190897;0.0;33798707;532
1;1;1;0.005286048;-0.02147599;0.008537868;-0.0056928745;-0.011152357;0.0036724673;0.0033607483;-0.009584427;-9.780321;-0.0056928745;-0.011152357;0.0036724673;1.0210524;-0.023093224;1.0298204;0.0;33798718;533
1;1;1;0.005336716;-0.021558765;0.008467979;0.0049162856;-0.0083145;-0.0069433306;0.008565903;-0.007129669;-9.784866;0.0049162856;-0.0083145;-0.0069433306;1.0155706;-0.026499748;1.025815;0.0;33798726;534
1;1;1;0.005298863;-0.021588642;0.008428038;-0.0038714113;-0.003008427;-0.003977168;-0.0032930374;-0.0095386505;-9.790641;-0.0038714113;-0.003008427;-0.003977168;1.017271;-0.023733139;1.0250368;0.0;33798738;535
1;1;1;0.0051764008;-0.02104915;0.008486371;0.0021680747;-0.009874281;0.00558933;-0.0053987503;0.010123253;-9.795437;0.0021680747;-0.009874281;0.00558933;1.0165119;-0.030445099;1.0200748;0.0;33798746;536
1;1;1;0.00528886;-0.02114397;0.008759076;0.011328793;-0.009457396;0.006667244;0.0010910034;0.010070801;-9.7826605;0.011328793;-0.009457396;0.006667244;1.0185022;-0.02611065;1.0257425;0.0;33798757;537
1;1;1;0.0053560105;-0.021164423;0.008743034;0.0066812416;-0.002053638;-0.0015929638;0.0033626556;0.0026931763;-9.780145;0.0066812416;-0.002053638;-0.0015929638;1.0142431;-0.031326294;1.0146818;0.0;33798769;538
1;1;1;0.005481179;-0.021312678;0.008774069;0.012582714;-0.014808051;0.0031829188;-0.00329113;0.0027389526;-9.790464;0.012582714;-0.014808051;0.0031829188;1.01686;-0.025658607;1.0252104;0.0;33798777;539
1;1;1;0.0055915243;-0.021385938;0.008819675;0.011131838;-0.0073007066;0.004600319;0.0064582825;2.565384E-4;-9.789839;0.011131838;-0.0073007066;0.004600319;1.016181;-0.026150703;1.0183115;0.0;33798789;540
1;1;1;0.005665224;-0.021432463;0.008802134;0.007332278;-0.0046624094;-0.0017278254;0.008895874;2.4986267E-4;-9.789673;0.007332278;-0.0046624094;-0.0017278254;1.0178862;-0.02696228;1.0256948;0.0;33798796;541
1;1;1;0.005665737;-0.021550627;0.008818349;8.6393E-5;-0.0118064545;0.0016881817;-6.904602E-4;-0.00217247;-9.792826;8.6393E-5;-0.0118064545;0.0016881817;1.0167866;-0.027448654;1.0187721;0.0;33798808;542
1;1;1;0.005649798;-0.021683458;0.008747203;-0.0017477677;-0.013322888;-0.007037541;0.002240181;0.0027503967;-9.799958;-0.0017477677;-0.013322888;-0.007037541;1.0175457;-0.024364471;1.0268831;0.0;33798816;543
1;1;1;0.0056613917;-0.021793306;0.0087674195;0.001203247;-0.010973242;0.0020830412;-0.0052375793;-0.00705719;-9.79814;0.001203247;-0.010973242;0.0020830412;1.0135593;-0.02719593;1.0172453;0.0;33798828;544
1;1;1;0.0056950115;-0.02183884;0.008805159;0.0034442274;-0.0045317;0.0037987162;-0.0054035187;-0.019341469;-9.795858;0.0034442274;-0.0045317;0.0037987162;1.0145817;-0.02935791;1.0179434;0.0;33798835;545
1;1;1;0.0053938823;-0.021287963;0.008802461;-0.010762487;-0.008980295;-6.0198747E-4;-0.005894661;2.8324127E-4;-9.788209;-0.010762487;-0.008980295;-6.0198747E-4;1.015315;-0.026542664;1.0212345;0.0;33798847;546
1;1;1;0.0054062754;-0.021443376;0.009056359;0.0013675765;-0.015505506;0.008258025;0.0038557053;0.0027122498;-9.787513;0.0013675765;-0.015505506;0.008258025;1.0171366;-0.02937603;1.0199041;0.0;33798859;547
1;1;1;0.0053475834;-0.021521531;0.009062027;-0.0058570756;-0.0078122495;6.0865213E-4;0.007908821;-0.004699707;-9.775008;-0.0058570756;-0.0078122495;6.0865213E-4;1.0145187;-0.032197;1.0139999;0.0;33798867;548
1;1;1;0.0053592646;-0.021598069;0.009101401;0.0012531225;-0.00763221;0.0039776284;0.0014190674;0.012539864;-9.787538;0.0012531225;-0.00763221;0.0039776284;1.0182877;-0.028979301;1.0185986;0.0;33798878;549
1;1;1;0.005405776;-0.021730717;0.0090467995;0.0045329803;-0.013294019;-0.00538772;-0.012876511;0.0052251816;-9.793547;0.0045329803;-0.013294019;-0.00538772;1.0184822;-0.027069092;1.0159006;0.0;33798886;550
1;1;1;0.0054788943;-0.021813327;0.009047203;0.007312573;-0.008260354;8.501545E-5;-0.0016765594;-0.0046663284;-9.778125;0.007312573;-0.008260354;8.501545E-5;1.0199213;-0.025557518;1.0185184;0.0;33798894;551
1;1;1;0.00552482;-0.021883842;0.008982493;0.004451351;-0.007086687;-0.006430424;0.007581711;0.0075645447;-9.769919;0.004451351;-0.007086687;-0.006430424;1.0188856;-0.027744293;1.0136251;0.0;33798910;552
1;1;1;0.0054749246;-0.021993885;0.008932979;-0.005098117;-0.011030853;-0.0048896987;0.005472183;0.007583618;-9.774999;-0.005098117;-0.011030853;-0.0048896987;1.0168295;-0.026834488;1.0155945;0.0;33798917;553
1;1;1;0.0053830277;-0.02210911;0.008857399;-0.009356237;-0.011562897;-0.007493459;-0.0054006577;3.0231476E-4;-9.795577;-0.009356237;-0.011562897;-0.007493459;1.0133018;-0.033875465;1.0164175;0.0;33798925;554
1;1;1;0.0053470857;-0.022141902;0.008848861;-0.0036129542;-0.003283313;-8.3576445E-4;0.0035247803;-0.0120334625;-9.782812;-0.0036129542;-0.003283313;-8.3576445E-4;1.0138006;-0.03429985;1.0180321;0.0;33798937;555
1;1;1;0.0052260226;-0.021647794;0.008831428;0.003821;-0.018001622;-0.002005819;0.0031967163;-0.009591103;-9.777865;0.003821;-0.018001622;-0.002005819;1.0132465;-0.030885696;1.0139589;0.0;33798945;556
1;1;1;0.0053028376;-0.021752227;0.0090410495;0.0076785143;-0.010443937;0.0021883065;0.00319767;-0.00467968;-9.777795;0.0076785143;-0.010443937;0.0021883065;1.0169821;-0.029168129;1.0192137;0.0;33798957;557
1;1;1;0.0053033903;-0.02187209;0.0090779085;1.3519649E-4;-0.011966329;0.0037486476;-0.018573761;0.010117531;-9.781527;1.3519649E-4;-0.011966329;0.0037486476;1.0173216;-0.027872086;1.0199413;0.0;33798968;558
1;1;1;0.0053654527;-0.022000046;0.009042773;0.006129223;-0.012814234;-0.003444177;-0.01336956;0.005206108;-9.786178;0.006129223;-0.012814234;-0.003444177;1.0172081;-0.025279999;1.0209026;0.0;33798976;559
1;1;1;0.005340895;-0.022077609;0.0090203015;-0.002505411;-0.0077682054;-0.002205233;0.008730888;2.4318695E-4;-9.787217;-0.002505411;-0.0077682054;-0.002205233;1.0197649;-0.026665688;1.0155201;0.0;33798988;560
1;1;1;0.005379614;-0.022159304;0.008985111;0.003794197;-0.008187814;-0.0034744274;0.01067543;0.002673149;-9.779649;0.003794197;-0.008187814;-0.0034744274;1.0180807;-0.025561333;1.0154533;0.0;33798996;561
1;1;1;0.005419396;-0.022232413;0.00901986;0.0040551345;-0.00729206;0.0035138202;-0.0039510727;-0.0071086884;-9.780782;0.0040551345;-0.00729206;0.0035138202;1.0172634;-0.025551796;1.0151796;0.0;33799007;562
1;1;1;0.005434405;-0.022339335;0.009025396;0.0015134319;-0.010688781;6.1134493E-4;-0.011098862;-0.014450073;-9.783837;0.0015134319;-0.010688781;6.1134493E-4;1.0137539;-0.030257225;1.0128479;0.0;33799015;563
1;1;1;0.0055298777;-0.022469811;0.009073826;0.009655872;-0.013020661;0.0049134716;-0.016137123;0.0027456284;-9.7814665;0.009655872;-0.013020661;0.0049134716;1.0133457;-0.031357765;1.010292;0.0;33799027;564
1;1;1;0.005544036;-0.022622062;0.009084078;0.0014387873;-0.015218895;0.0011089287;0.0035247803;-0.014489174;-9.782846;0.0014387873;-0.015218895;0.0011089287;1.013978;-0.030024529;1.0151539;0.0;33799035;565
1;1;1;0.005347301;-0.02205059;0.009147978;-0.0035791872;-0.010146592;0.006099522;-0.006550789;0.0027132034;-9.77835;-0.0035791872;-0.010146592;0.006099522;1.0137739;-0.03178978;1.0103054;0.0;33799046;566
1;1;1;0.005333262;-0.02213171;0.009320482;-0.001426976;-0.008115543;9.1313134E-4;-0.0010185242;0.0076360703;-9.787773;-0.001426976;-0.008115543;9.1313134E-4;1.0126295;-0.03133583;1.0113974;0.0;33799058;567
1;1;1;0.0054329913;-0.022216735;0.009322459;0.009977278;-0.008501434;2.4357018E-4;0.005965233;-0.0022182465;-9.782506;0.009977278;-0.008501434;2.4357018E-4;1.0156231;-0.032432556;1.0133667;0.0;33799066;568
1;1;1;0.0054080216;-0.02226264;0.009403432;-0.0023168728;-0.004545776;0.008120136;0.008237839;2.2411346E-4;-9.779849;-0.0023168728;-0.004545776;0.008120136;1.016717;-0.032021523;1.0127449;0.0;33799078;569
1;1;1;0.005447721;-0.022312507;0.009439172;0.0040494837;-0.004967463;0.0036001182;-0.0016765594;-0.002210617;-9.77809;0.0040494837;-0.004967463;0.0036001182;1.0170059;-0.028575897;1.0137358;0.0;33799085;570
1;1;1;0.005492934;-0.022352548;0.009395321;0.004423167;-0.0040277787;-0.0043622223;-0.00866127;-0.0070905685;-9.783567;0.004423167;-0.0040277787;-0.0043622223;1.0164995;-0.028770447;1.0148544;0.0;33799097;571
1;1;1;0.0055382927;-0.02239152;0.009400383;0.0045471657;-0.003893923;5.2781147E-4;-0.0029621124;0.0027513504;-9.795377;0.0045471657;-0.003893923;5.2781147E-4;1.017293;-0.02644062;1.0124178;0.0;33799109;572
1;1;1;0.005597893;-0.02254172;0.009402761;0.005965137;-0.015018474;3.2108164E-4;0.0014181137;0.0027189255;-9.787678;0.005965137;-0.015018474;3.2108164E-4;1.0155897;-0.031178474;1.0095024;0.0;33799117;573
1;1;1;0.005603616;-0.022600705;0.009330497;4.0937733E-4;-0.0059384746;-0.0071916585;-0.009945869;0.0027828217;-9.800784;4.0937733E-4;-0.0059384746;-0.0071916585;1.0150251;-0.034161568;1.0116987;0.0;33799128;574
1;1;1;0.0056001884;-0.02266911;0.009338032;-3.2564678E-4;-0.0068361526;7.9162105E-4;-0.0063886642;-0.0071020126;-9.780947;-3.2564678E-4;-0.0068361526;7.9162105E-4;1.0135794;-0.03068161;1.0135174;0.0;33799136;575
1;1;1;0.005454741;-0.022077799;0.0093405815;0.0037524882;-0.011260952;-7.9447345E-5;-0.015974045;-0.009526253;-9.784099;0.0037524882;-0.011260952;-7.9447345E-5;1.0100441;-0.039277077;1.0095148;0.0;33799148;576
1;1;1;0.0054107774;-0.022130013;0.009526499;-0.0044759503;-0.0052380976;-0.0011311062;0.006293297;-0.002204895;-9.787418;-0.0044759503;-0.0052380976;-0.0011311062;1.0125151;-0.036919594;1.0122023;0.0;33799156;577
1;1;1;0.0053984486;-0.022230178;0.0095438035;-0.0011946328;-0.010007008;0.0017842643;0.0019111633;-0.0046281815;-9.795152;-0.0011946328;-0.010007008;0.0017842643;1.0129404;-0.03391838;1.0115938;0.0;33799167;578
1;1;1;0.005415238;-0.0223029;0.0094961105;0.0015724194;-0.0072973287;-0.004728606;-0.0013465881;0.0051670074;-9.782895;0.0015724194;-0.0072973287;-0.004728606;1.0169449;-0.029016495;1.0130377;0.0;33799179;579
1;1;1;0.0054393443;-0.022409441;0.0094621135;0.0023347358;-0.010672216;-0.0033411363;0.007580757;-0.0022563934;-9.77006;0.0023347358;-0.010672216;-0.0033411363;1.0162315;-0.026605606;1.0162468;0.0;33799187;580
1;1;1;0.005465871;-0.02245887;0.009486904;0.0027083128;-0.0049290685;0.0025051958;9.2315674E-4;-0.009577751;-9.780486;0.0027083128;-0.0049290685;0.0025051958;1.0176115;-0.029456139;1.0126095;0.0;33799199;581
1;1;1;0.0055331183;-0.022488445;0.00951477;0.0067873998;-0.0029418129;0.0028017596;-0.0058927536;0.012559891;-9.7880335;0.0067873998;-0.0029418129;0.0028017596;1.0169582;-0.031161308;1.0132294;0.0;33799207;582
1;1;1;0.0056240167;-0.022523696;0.009475415;0.009001456;-0.0035467553;-0.0039144405;0.006623268;0.007628441;-9.792191;0.009001456;-0.0035467553;-0.0039144405;1.0153112;-0.032167435;1.0181513;0.0;33799218;583
1;1;1;0.005638987;-0.022551782;0.009366815;0.0012522512;-0.0028698314;-0.010841347;0.008896828;0.0051603317;-9.789602;0.0012522512;-0.0028698314;-0.010841347;1.0164614;-0.02889824;1.0239954;0.0;33799226;584
1;1;1;0.0056644785;-0.022604207;0.009305369;0.0024105222;-0.0052768555;-0.006113253;0.0051431656;2.0503998E-4;-9.77019;0.0024105222;-0.0052768555;-0.006113253;1.0123234;-0.033833504;1.0191126;0.0;33799238;585
1;1;1;0.005542949;-0.021958964;0.0093022715;0.0039686034;-0.0054670046;-6.289143E-4;0.0033597946;-0.012039185;-9.780356;0.0039686034;-0.0054670046;-6.289143E-4;1.0130701;-0.03214264;1.0173483;0.0;33799250;586
1;1;1;0.0055867233;-0.022063812;0.009562184;0.0042686923;-0.010506049;-0.0013847869;0.006292343;-0.009572029;-9.787524;0.0042686923;-0.010506049;-0.0013847869;1.0143366;-0.034549713;1.0150871;0.0;33799257;587
1;1;1;0.005552118;-0.0221945;0.00959124;-0.003396342;-0.0130523145;0.0029774816;2.6512146E-4;-0.014513969;-9.770731;-0.003396342;-0.0130523145;0.0029774816;1.0148363;-0.030887604;1.0160923;0.0;33799269;588
1;1;1;0.0055693756;-0.02230409;0.009560153;0.0016570021;-0.010976281;-0.0030468486;0.012454987;-0.0047254562;-9.769765;0.0016570021;-0.010976281;-0.0030468486;1.0158339;-0.030921936;1.0140934;0.0;33799277;589
1;1;1;0.005516528;-0.02248652;0.009568815;-0.0052655376;-0.018237649;9.6705154E-4;-6.9236755E-4;-0.014450073;-9.793001;-0.0052655376;-0.018237649;9.6705154E-4;1.0155592;-0.028734207;1.0170889;0.0;33799289;590
1;1;1;0.0054788445;-0.022555787;0.009636083;-0.0036169067;-0.006889255;0.0067631067;-8.5544586E-4;-0.009545326;-9.790475;-0.0036169067;-0.006889255;0.0067631067;1.0147762;-0.028756142;1.0138474;0.0;33799296;591
1;1;1;0.0055072955;-0.022545196;0.009662511;0.002904803;0.0010738508;0.002636606;0.006293297;2.4986267E-4;-9.787383;0.002904803;0.0010738508;0.002636606;1.0174227;-0.028139114;1.0146828;0.0;33799308;592
1;1;1;0.0056360955;-0.022622747;0.00961956;0.012782934;-0.0077787824;-0.004251129;0.0012540817;0.0051670074;-9.785186;0.012782934;-0.0077787824;-0.004251129;1.0117741;-0.030903816;1.0099869;0.0;33799320;593
1;1;1;0.005652641;-0.022737764;0.009607846;0.0016280727;-0.011508065;-0.0011057798;0.003364563;0.019880295;-9.779899;0.0016280727;-0.011508065;-0.0011057798;1.0148058;-0.036144257;1.0070772;0.0;33799328;594
1;1;1;0.005700762;-0.022843849;0.009583437;0.004756522;-0.010622043;-0.0023804067;0.01067543;0.007583618;-9.779579;0.004756522;-0.010622043;-0.0023804067;1.0138102;-0.03736782;1.0118065;0.0;33799335;595
1;1;1;0.0055903546;-0.022234753;0.00959561;0.0032716314;-0.012829015;9.739518E-4;-0.008002281;0.0027570724;-9.793251;0.0032716314;-0.012829015;9.739518E-4;1.0125866;-0.03566265;1.0085754;0.0;33799347;596
1;1;1;0.0055183163;-0.02231023;0.009894071;-0.0070863;-0.00751293;0.007963322;-0.0013475418;-0.0021982193;-9.783001;-0.0070863;-0.00751293;0.007963322;1.0139399;-0.03481102;1.0098028;0.0;33799355;597
1;1;1;0.0055592135;-0.022399666;0.009927008;0.0041635036;-0.008924708;0.0033426154;-8.5544586E-4;-0.009545326;-9.790475;0.0041635036;-0.008924708;0.0033426154;1.0129194;-0.033701897;1.0118284;0.0;33799371;598
1;1;1;0.0055955653;-0.02238045;0.009962277;0.003714126;0.0019412376;0.0035155877;0.0028676987;-0.009604454;-9.772953;0.003714126;0.0019412376;0.0035155877;1.0157871;-0.028985977;1.0143509;0.0;33799378;599
1;1;1;0.005557597;-0.022502275;0.009997583;-0.0037176001;-0.012162513;0.0035974067;0.022369385;0.0026197433;-9.771455;-0.0037176001;-0.012162513;0.0035974067;1.0146093;-0.030024529;1.0160971;0.0;33799386;600
1;1;1;0.005532594;-0.022601629;0.010066971;-0.002344006;-0.009896747;0.0069919927;0.016373634;0.010056496;-9.791494;-0.002344006;-0.009896747;0.0069919927;1.0165434;-0.031826973;1.0106802;0.0;33799398;601
1;1;1;0.005529867;-0.022679681;0.010081187;-2.404406E-4;-0.007796836;0.0014646358;0.0015821457;2.6988983E-4;-9.790169;-2.404406E-4;-0.007796836;0.0014646358;1.0166092;-0.031189919;1.009779;0.0;33799406;602
1;1;1;0.0055645043;-0.022752032;0.010115391;0.0035411594;-0.007215976;0.003459447;-0.0081682205;-0.0070705414;-9.7909355;0.0035411594;-0.007215976;0.003459447;1.015089;-0.030261993;1.0129166;0.0;33799417;603
1;1;1;0.0055947243;-0.02288391;0.010043114;0.0028573547;-0.013227365;-0.0071525946;-0.008167267;-0.0021591187;-9.790865;0.0028573547;-0.013227365;-0.0071525946;1.0136318;-0.03539276;1.0136614;0.0;33799425;604
1;1;1;0.005724576;-0.02298786;0.009967213;0.0128114335;-0.01043777;-0.0075290175;0.010511398;0.0075769424;-9.777123;0.0128114335;-0.01043777;-0.0075290175;1.0142326;-0.03803253;1.0093012;0.0;33799437;605
1;1;1;0.005633488;-0.022306819;0.009882538;0.007431494;-0.0043636835;-0.008803404;0.013935089;0.0051527023;-9.791729;0.007431494;-0.0043636835;-0.008803404;1.0186148;-0.026629448;1.0152283;0.0;33799449;606
1;1;1;0.0056762937;-0.022397067;0.010125433;0.0042089024;-0.009036338;-1.570083E-4;-0.010273933;0.0052251816;-9.795836;0.0042089024;-0.009036338;-1.570083E-4;1.0165186;-0.031731606;1.0186853;0.0;33799457;607
1;1;1;0.005686114;-0.022327682;0.010100622;9.2650205E-4;0.006924266;-0.0025197158;-0.00866127;-0.0070905685;-9.783567;9.2650205E-4;0.006924266;-0.0025197158;1.0175714;-0.027209282;1.0204229;0.0;33799468;608
1;1;1;0.0057577165;-0.022383517;0.010055888;0.00706032;-0.005608243;-0.0044402177;-0.0041151047;-0.009571075;-9.778361;0.00706032;-0.005608243;-0.0044402177;1.0179081;-0.028036118;1.024087;0.0;33799476;609
1;1;1;0.0057549356;-0.02241326;0.010010385;-3.80027E-4;-0.0030002631;-0.0045318976;0.0038547516;2.565384E-4;-9.787548;-3.80027E-4;-0.0030002631;-0.0045318976;1.0166864;-0.026307106;1.0233688;0.0;33799488;610
1;1;1;0.00572712;-0.022470927;0.0099731805;-0.002865146;-0.005788182;-0.0036863089;0.005965233;-0.004673958;-9.782541;-0.002865146;-0.005788182;-0.0036863089;1.0147228;-0.028010368;1.0220938;0.0;33799500;611
1;1;1;0.00573974;-0.022562912;0.009900415;0.0010983035;-0.009239687;-0.007221934;-0.0016775131;-0.009577751;-9.778195;0.0010983035;-0.009239687;-0.007221934;1.0159197;-0.030621529;1.0207338;0.0;33799507;612
1;1;1;0.0057192114;-0.022595568;0.009865949;-0.0021304998;-0.0032853638;-0.0034267297;0.0036907196;-0.002204895;-9.785127;-0.0021304998;-0.0032853638;-0.0034267297;1.0159826;-0.026790619;1.0166922;0.0;33799515;613
